Folder: biomass.carbon/data-raw/raw_biomass

Note: README.md
# recal_traits is a thesis chapter

File: CL.csv
#EXPORTTYPE:                 ,DATA SINGLE
#FILE:                       ,CL.ngb-st9
#FORMAT:                     ,NETZSCH5
#FTYPE:                      ,ANSI
#IDENTITY:                   ,Saras
#DECIMAL:                    ,POINT
#SEPARATOR:                  ,COMMA
#MTYPE:                      ,TG
#INSTRUMENT:                 ,NETZSCH TG 209F1 Libra
#PROJECT:                    ,IL
#DATE/TIME:                  ,30/05/2017 2:08:57 PM (UTC+10)
#CORR. FILE:                 ,
#TEMPCAL:                    ,TCALZERO.TCX
#LABORATORY:                 ,Mulvaney
#OPERATOR:                   ,JGC
#REMARK:                     ,Training run
#SAMPLE:                     ,cellulose
#SAMPLE MASS /mg:            ,17.1559
#MATERIAL:                   ,CZTSE
#TYPE OF CRUCIBLE:           ,Al2O3
#SAMPLE CRUCIBLE MASS /mg:   ,312.1469
#REFERENCE CRUCIBLE MASS /mg:,
#M.RANGE /mg:                ,2000
#CORR. CODE:                 ,090
#RANGE:                      ,32°C/10.0(K/min)/800°C
#SEGMENT:                    ,S1/1
#SEG. 1:                     ,32°C/10.0(K/min)/800°C

##Temp./°C,Time/min,Mass loss/mg
 31.59700, 0.00000,-1.717149e-003
 34.19700, 0.44195,-1.090499e-002
 36.79700, 0.68419,-2.023572e-002
 39.39700, 0.89503,-3.573104e-002
 41.99700, 1.09973,-5.225835e-002
 44.59700, 1.31083,-7.410767e-002
 47.19700, 1.53722,      -0.10115
 49.79700, 1.78343,      -0.13762
 52.39700, 2.04711,      -0.18124
 54.99700, 2.31909,      -0.23273
 57.59700, 2.59014,      -0.28966
 60.19700, 2.85602,      -0.35170
 62.79700, 3.11716,      -0.41857
 65.39700, 3.37480,      -0.50365
 67.99700, 3.63204,      -0.57242
 70.59700, 3.88940,      -0.65429
 73.19700, 4.14757,      -0.74483
 75.79700, 4.40573,      -0.82692
 78.39700, 4.66462,      -0.90549
 80.99700, 4.92371,      -0.98700
 83.59700, 5.18298,      -1.07005
 86.19700, 5.44167,      -1.14362
 88.79700, 5.70108,      -1.21622
 91.39700, 5.96030,      -1.28759
 93.99700, 6.21927,      -1.35235
 96.59700, 6.47838,      -1.41419
 99.19700, 6.73909,      -1.47068
101.797, 7.00006,      -1.52465
104.397, 7.25926,      -1.57272
106.997, 7.51911,      -1.61912
109.597, 7.77948,      -1.66245
112.197, 8.03974,      -1.70018
114.797, 8.30026,      -1.73839
117.397, 8.56053,      -1.77260
119.997, 8.82123,      -1.80412
122.597, 9.08113,      -1.83297
125.197, 9.34171,      -1.86390
127.797, 9.60196,      -1.88894
130.397, 9.86194,      -1.91575
132.997,10.12200,      -1.93915
135.597,10.38149,      -1.96037
138.197,10.64101,      -1.98038
140.797,10.90117,      -2.00057
143.397,11.16085,      -2.01741
145.997,11.42065,      -2.03298
148.597,11.68059,      -2.04748
151.197,11.94059,      -2.06141
153.797,12.20084,      -2.07421
156.397,12.46100,      -2.08561
158.997,12.72140,      -2.09605
161.597,12.98173,      -2.10308
164.197,13.24132,      -2.11067
166.797,13.50115,      -2.11746
169.397,13.76143,      -2.12616
171.997,14.02167,      -2.13170
174.597,14.28162,      -2.13673
177.197,14.54155,      -2.14237
179.797,14.80095,      -2.14561
182.397,15.06142,      -2.15145
184.997,15.32157,      -2.15560
187.597,15.58155,      -2.15945
190.197,15.84139,      -2.16210
192.797,16.10198,      -2.16661
195.397,16.36180,      -2.17151
197.997,16.62136,      -2.17419
200.597,16.88178,      -2.18094
203.197,17.14178,      -2.18727
205.797,17.40171,      -2.19260
208.397,17.66139,      -2.19764
210.997,17.92110,      -2.20488
213.597,18.18111,      -2.21240
216.197,18.44167,      -2.22496
218.797,18.70198,      -2.23581
221.397,18.96175,      -2.24757
223.997,19.22143,      -2.26331
226.597,19.48131,      -2.27814
229.197,19.74081,      -2.29782
231.797,20.00095,      -2.32155
234.397,20.26127,      -2.34940
236.997,20.52106,      -2.38137
239.597,20.77740,      -2.42066
242.197,21.03414,      -2.46620
244.797,21.29992,      -2.52413
247.397,21.56169,      -2.60053
249.997,21.82125,      -2.69593
252.597,22.08012,      -2.80179
255.197,22.33907,      -2.92991
257.797,22.59789,      -3.08637
260.397,22.85663,      -3.27379
262.997,23.11551,      -3.50520
265.597,23.37465,      -3.77930
268.197,23.63379,      -4.11097
270.797,23.89172,      -4.48962
273.397,24.15087,      -4.93283
275.997,24.41115,      -5.40612
278.597,24.67386,      -5.90280
281.197,24.93758,      -6.37740
283.797,25.20143,      -6.82207
286.397,25.46392,      -7.23010
288.997,25.72350,      -7.61733
291.597,25.98201,      -8.03332
294.197,26.24441,      -8.43693
296.797,26.51666,      -8.66118
299.397,26.78241,      -8.76829
301.997,27.04070,      -8.82616
304.597,27.29583,      -8.87528
307.197,27.55131,      -8.91355
309.797,27.80851,      -8.94659
312.397,28.06678,      -8.97218
314.997,28.32628,      -8.99554
317.597,28.58646,      -9.01926
320.197,28.84654,      -9.04057
322.797,29.10649,      -9.06097
325.397,29.36607,      -9.08231
327.997,29.62591,      -9.10614
330.597,29.88598,      -9.12773
333.197,30.14549,      -9.14840
335.797,30.40535,      -9.17197
338.397,30.66586,      -9.19473
340.997,30.92565,      -9.21847
343.597,31.18574,      -9.24263
346.197,31.44556,      -9.26682
348.797,31.70520,      -9.29048
351.397,31.96514,      -9.31606
353.997,32.22545,      -9.34302
356.597,32.48537,      -9.36660
359.197,32.74509,      -9.39027
361.797,33.00541,      -9.41629
364.397,33.26557,      -9.44129
366.997,33.52613,      -9.46607
369.597,33.78595,      -9.49109
372.197,34.04649,      -9.51705
374.797,34.30693,      -9.54135
377.397,34.56710,      -9.56979
379.997,34.82733,      -9.59642
382.597,35.08727,      -9.62141
385.197,35.34743,      -9.64790
387.797,35.60793,      -9.67589
390.397,35.86810,      -9.69991
392.997,36.12871,      -9.72767
395.597,36.38909,      -9.75457
398.197,36.64896,      -9.77876
400.797,36.90959,      -9.80588
403.397,37.17026,      -9.83450
405.997,37.42996,      -9.85574
408.597,37.69123,      -9.88815
411.197,37.95101,      -9.90851
413.797,38.21116,      -9.93473
416.397,38.47207,      -9.96066
418.997,38.73246,      -9.98381
421.597,38.99277,     -10.00672
424.197,39.25351,     -10.03025
426.797,39.51520,     -10.05511
429.397,39.77713,     -10.07405
431.997,40.03896,     -10.09874
434.597,40.29770,     -10.11706
437.197,40.55591,     -10.13453
439.797,40.81475,     -10.15644
442.397,41.07378,     -10.17247
444.997,41.33374,     -10.19401
447.597,41.59344,     -10.21253
450.197,41.85354,     -10.23407
452.797,42.11335,     -10.25130
455.397,42.37323,     -10.26693
457.997,42.63423,     -10.29488
460.597,42.89317,     -10.30568
463.197,43.15346,     -10.33044
465.797,43.41341,     -10.34954
468.397,43.67331,     -10.36596
470.997,43.93333,     -10.38428
473.597,44.19302,     -10.39973
476.197,44.45365,     -10.41740
478.797,44.71435,     -10.43897
481.397,44.97409,     -10.44440
483.997,45.23525,     -10.46455
486.597,45.49549,     -10.48001
489.197,45.75497,     -10.48810
491.797,46.01500,     -10.50159
494.397,46.27529,     -10.51457
496.997,46.53504,     -10.52046
499.597,46.79579,     -10.53535
502.197,47.05503,     -10.54002
504.797,47.31500,     -10.55140
507.397,47.57501,     -10.55678
509.997,47.83565,     -10.56989
512.597,48.09576,     -10.57721
515.197,48.35594,     -10.58408
517.797,48.61542,     -10.59010
520.397,48.87528,     -10.59423
522.997,49.13565,     -10.60548
525.597,49.39515,     -10.60945
528.197,49.65501,     -10.60990
530.797,49.91523,     -10.61857
533.397,50.17581,     -10.62850
535.997,50.43558,     -10.63085
538.597,50.69553,     -10.63373
541.197,50.95516,     -10.63844
543.797,51.21567,     -10.64129
546.397,51.47556,     -10.64332
548.997,51.73692,     -10.65117
551.597,51.99603,     -10.65358
554.197,52.25670,     -10.66142
556.797,52.51617,     -10.66054
559.397,52.77611,     -10.66286
561.997,53.03718,     -10.66608
564.597,53.29781,     -10.66951
567.197,53.55810,     -10.67260
569.797,53.81836,     -10.67391
572.397,54.07902,     -10.68151
574.997,54.33825,     -10.67881
577.597,54.59909,     -10.68510
580.197,54.85806,     -10.68619
582.797,55.11806,     -10.68737
585.397,55.37859,     -10.69277
587.997,55.63848,     -10.69573
590.597,55.89842,     -10.69900
593.197,56.15752,     -10.70047
595.797,56.41649,     -10.70233
598.397,56.67674,     -10.70529
600.997,56.93733,     -10.70784
603.597,57.19697,     -10.71230
606.197,57.45663,     -10.71464
608.797,57.71646,     -10.71648
611.397,57.97704,     -10.72042
613.997,58.23760,     -10.72615
616.597,58.49782,     -10.72982
619.197,58.75791,     -10.73223
621.797,59.01859,     -10.73615
624.397,59.27879,     -10.74303
626.997,59.53869,     -10.74443
629.597,59.79980,     -10.75314
632.197,60.05994,     -10.76235
634.797,60.32005,     -10.76325
637.397,60.58040,     -10.77645
639.997,60.83992,     -10.77994
642.597,61.09978,     -10.78224
645.197,61.35955,     -10.78622
647.797,61.62129,     -10.79729
650.397,61.88221,     -10.80778
652.997,62.14271,     -10.81825
655.597,62.40349,     -10.83085
658.197,62.66379,     -10.83731
660.797,62.92440,     -10.85269
663.397,63.18508,     -10.86275
665.997,63.44580,     -10.87888
668.597,63.70509,     -10.89266
671.197,63.96556,     -10.91061
673.797,64.22509,     -10.92518
676.397,64.48548,     -10.93848
678.997,64.74591,     -10.95779
681.597,65.00597,     -10.97521
684.197,65.26621,     -10.99335
686.797,65.52648,     -11.01110
689.397,65.78658,     -11.03145
691.997,66.04673,     -11.05300
694.597,66.30658,     -11.07093
697.197,66.56646,     -11.08906
699.797,66.82639,     -11.10828
702.397,67.08783,     -11.12849
704.997,67.34847,     -11.15470
707.597,67.60809,     -11.16779
710.197,67.86927,     -11.19332
712.797,68.12869,     -11.21565
715.397,68.38807,     -11.23699
717.997,68.64718,     -11.25314
720.597,68.90767,     -11.27659
723.197,69.16723,     -11.29929
725.797,69.42884,     -11.32020
728.397,69.68719,     -11.33971
730.997,69.94799,     -11.36505
733.597,70.20747,     -11.38286
736.197,70.46793,     -11.40574
738.797,70.72898,     -11.43432
741.397,70.98751,     -11.44151
743.997,71.24867,     -11.47248
746.597,71.50828,     -11.49463
749.197,71.76902,     -11.51660
751.797,72.02912,     -11.54048
754.397,72.28964,     -11.56441
756.997,72.54972,     -11.58420
759.597,72.80975,     -11.60768
762.197,73.06994,     -11.62988
764.797,73.33102,     -11.65303
767.397,73.59106,     -11.67720
769.997,73.85160,     -11.70030
772.597,74.11157,     -11.72146
775.197,74.37170,     -11.74033
777.797,74.63136,     -11.76045
780.397,74.89157,     -11.77991
782.997,75.15185,     -11.80086
785.597,75.41188,     -11.81370
788.197,75.67190,     -11.83054
790.797,75.93142,     -11.84992
793.397,76.19112,     -11.87025
795.997,76.45065,     -11.88435
798.597,76.70970,     -11.89830
799.397,76.78946,     -11.90311

File: HC.csv
#EXPORTTYPE:                 ,DATA SINGLE
#FILE:                       ,HC.ngb-st9
#FORMAT:                     ,NETZSCH5
#FTYPE:                      ,ANSI
#IDENTITY:                   ,Saras
#DECIMAL:                    ,POINT
#SEPARATOR:                  ,COMMA
#MTYPE:                      ,TG
#INSTRUMENT:                 ,NETZSCH TG 209F1 Libra
#PROJECT:                    ,PM
#DATE/TIME:                  ,15/01/2018 12:26:33 PM (UTC+11)
#CORR. FILE:                 ,
#TEMPCAL:                    ,TCALZERO.TCX
#LABORATORY:                 ,Capture Lab
#OPERATOR:                   ,Frank
#REMARK:                     ,
#SAMPLE:                     ,HC
#SAMPLE MASS /mg:            ,15.4650
#MATERIAL:                   ,zeolite
#TYPE OF CRUCIBLE:           ,Al2O3
#SAMPLE CRUCIBLE MASS /mg:   ,169.3205
#REFERENCE CRUCIBLE MASS /mg:,
#M.RANGE /mg:                ,2000
#CORR. CODE:                 ,090
#RANGE:                      ,32°C/10.0(K/min)/900°C
#SEGMENT:                    ,S1/1
#SEG. 1:                     ,32°C/10.0(K/min)/900°C

##Temp./°C,Time/min,Mass loss/mg
 31.53500, 0.00000,-1.657481e-003
 34.43500, 0.46207,-4.872035e-003
 37.33500, 0.73236,-6.082292e-003
 40.23500, 0.97017,-7.569576e-003
 43.13500, 1.20391,-9.401151e-003
 46.03500, 1.44752,-1.274493e-002
 48.93500, 1.70895,-1.770682e-002
 51.83500, 1.98970,-2.731645e-002
 54.73500, 2.28459,-3.575559e-002
 57.63500, 2.58460,-4.866509e-002
 60.53500, 2.88376,-6.215758e-002
 63.43500, 3.17861,-7.779012e-002
 66.33500, 3.46879,-9.557394e-002
 69.23500, 3.75647,      -0.11788
 72.13500, 4.04441,      -0.14415
 75.03500, 4.33361,      -0.17736
 77.93500, 4.62324,      -0.21344
 80.83500, 4.91128,      -0.25588
 83.73500, 5.19833,      -0.29950
 86.63500, 5.48451,      -0.34173
 89.53500, 5.77155,      -0.38343
 92.43500, 6.06010,      -0.41935
 95.33500, 6.34945,      -0.45248
 98.23500, 6.63940,      -0.48221
101.135, 6.92971,      -0.50761
104.035, 7.22068,      -0.52916
106.935, 7.51126,      -0.54854
109.835, 7.80196,      -0.56356
112.735, 8.09270,      -0.58005
115.635, 8.38357,      -0.59633
118.535, 8.67461,      -0.61597
121.435, 8.96538,      -0.64167
124.335, 9.25570,      -0.67318
127.235, 9.54569,      -0.70933
130.135, 9.83559,      -0.75459
133.035,10.12502,      -0.80475
135.935,10.41415,      -0.85490
138.835,10.70252,      -0.90357
141.735,10.99136,      -0.94679
144.635,11.28012,      -0.98188
147.535,11.56923,      -1.01036
150.435,11.85860,      -1.02824
153.335,12.14794,      -1.04040
156.235,12.44045,      -1.05381
159.135,12.73277,      -1.07067
162.035,13.02529,      -1.09262
164.935,13.31681,      -1.12332
167.835,13.60651,      -1.16387
170.735,13.89401,      -1.21582
173.635,14.18028,      -1.29459
176.535,14.46681,      -1.39704
179.435,14.75508,      -1.51179
182.335,15.04432,      -1.64050
185.235,15.33369,      -1.78197
188.135,15.62326,      -1.93465
191.035,15.91392,      -2.09795
193.935,16.20459,      -2.26906
196.835,16.49542,      -2.43871
199.735,16.78557,      -2.60612
202.635,17.07605,      -2.76577
205.535,17.36664,      -2.91811
208.435,17.65716,      -3.05754
211.335,17.94809,      -3.18948
214.235,18.23924,      -3.31678
217.135,18.52969,      -3.44195
220.035,18.82027,      -3.56535
222.935,19.11063,      -3.69176
225.835,19.40082,      -3.81767
228.735,19.69057,      -3.94282
231.635,19.98079,      -4.07140
234.535,20.27084,      -4.20355
237.435,20.56071,      -4.33307
240.335,20.85059,      -4.46124
243.235,21.14045,      -4.58708
246.135,21.43025,      -4.71329
249.035,21.72026,      -4.83744
251.935,22.01028,      -4.95687
254.835,22.30055,      -5.07575
257.735,22.59070,      -5.19027
260.635,22.88028,      -5.30705
263.535,23.17032,      -5.41832
266.435,23.46029,      -5.53242
269.335,23.75001,      -5.63966
272.235,24.04042,      -5.74664
275.135,24.32992,      -5.85706
278.035,24.62056,      -5.96733
280.935,24.91082,      -6.07454
283.835,25.20071,      -6.18772
286.735,25.49050,      -6.30444
289.635,25.78055,      -6.42611
292.535,26.07100,      -6.54843
295.435,26.36131,      -6.69535
298.335,26.65150,      -6.82496
301.235,26.94134,      -6.99300
304.135,27.23068,      -7.14097
307.035,27.52097,      -7.30357
309.935,27.81192,      -8.38099
312.835,28.10317,      -2.64540
315.735,28.39331,       7.20542
318.635,28.68271,      17.22361
321.535,28.97262,      19.93001
324.435,29.26216,      36.03850
327.335,29.55262,      45.54079
330.235,29.84359,      54.78652
333.135,30.13277,      61.87408
336.035,30.42258,      72.20290
338.935,30.71285,      72.27796
341.835,31.00313,      75.84542
344.735,31.29368,      78.08534
347.635,31.58427,      94.11242
350.535,31.87398,      95.81987
353.435,32.16427,     112.618
356.335,32.45488,     122.434
359.235,32.74518,     128.959
362.135,33.03518,     132.427
365.035,33.32629,     114.476
367.935,33.61518,       5.77133
370.835,33.90413,      -3.47330
373.735,34.19428,      15.34261
376.635,34.48502,      47.40519
379.535,34.77587,      74.50003
382.435,35.06616,      94.27632
385.335,35.35704,     107.549
388.235,35.64774,      51.08051
391.135,35.93851,      56.40618
394.035,36.22947,      23.06151
396.935,36.52029,     -14.38539
399.835,36.81060,     -16.47505
402.735,37.10114,     -17.16244
405.635,37.39159,      -9.84650
408.535,37.68155,     -31.89038
411.435,37.97008,     -64.30164
414.335,38.25844,    -108.56
417.235,38.54909,    -152.895
420.135,38.83859,    -191.466
423.035,39.12883,    -225.714
425.935,39.41974,    -278.455
428.835,39.71027,    -335.118
431.735,40.00388,    -142.74
434.635,40.29494,    -152.561
437.535,40.58367,    -152.672
440.435,40.87362,    -149.06
443.335,41.16570,    -160.183
446.235,41.45249,    -167.607
449.135,41.74414,    -172.475
452.035,42.03438,    -179.368
454.935,42.32488,    -184.005
457.835,42.61549,    -182.865
460.735,42.90414,    -184.056
463.635,43.19302,    -151.459
466.535,43.48351,    -161.058
469.435,43.77324,    -160.601
472.335,44.06063,    -172.351
475.235,44.34997,    -182.279
478.135,44.63932,    -181.218
481.035,44.92877,    -184.462
483.935,45.22070,    -184.208
486.835,45.51904,    -182.592
489.735,45.81084,    -182.011
492.635,46.10095,    -179.057
495.535,46.38937,    -172.879
498.435,46.67778,    -176.457
501.335,46.96751,    -208.18
504.235,47.25684,    -207.686
507.135,47.54552,    -201.851
510.035,47.83480,    -199.582
512.935,48.12396,    -182.808
515.835,48.41354,    -178.904
518.735,48.70316,    -174.933
521.635,48.99389,    -173.921
524.535,49.28570,    -157.373
527.435,49.57699,    -143.471
530.335,49.86765,    -131.574
533.235,50.15805,    -121.848
536.135,50.44882,    -112.62
539.035,50.73913,    -101.468
541.935,51.02832,     -94.83950
544.835,51.31883,     -91.22320
547.735,51.60862,     -87.99678
550.635,51.89870,     -79.34483
553.535,52.18828,     -72.59302
556.435,52.47874,     -69.55841
559.335,52.76876,     -69.03990
562.235,53.05922,     -67.68335
565.135,53.34895,     -68.29509
568.035,53.63855,     -63.35531
570.935,53.92825,     -55.92492
573.835,54.21838,     -56.54501
576.735,54.50891,     -57.24042
579.635,54.79949,     -58.45226
582.535,55.08910,     -52.39987
585.435,55.37877,     -52.72911
588.335,55.66851,     -52.96025
591.235,55.95953,     -54.77138
594.135,56.24885,     -55.67002
597.035,56.53839,     -57.40665
599.935,56.82897,     -59.51531
602.835,57.11869,     -60.53743
605.735,57.40894,     -56.03062
608.635,57.69978,     -54.07128
611.535,57.99020,     -52.36641
614.435,58.28099,     -50.87228
617.335,58.57160,     -50.20502
620.235,58.86116,     -51.47040
623.135,59.15156,     -52.61127
626.035,59.44143,     -53.79625
628.935,59.73165,     -55.94117
631.835,60.02163,     -57.08904
634.735,60.31204,     -59.00109
637.635,60.60195,     -59.92905
640.535,60.89188,     -61.70579
643.435,61.18150,     -63.53257
646.335,61.47231,     -62.82849
649.235,61.76241,     -63.30772
652.135,62.05275,     -65.70505
655.035,62.34297,     -65.91577
657.935,62.63346,     -68.59996
660.835,62.92360,     -67.57088
663.735,63.21402,     -66.13373
666.635,63.50392,     -67.70088
669.535,63.79407,     -64.85461
672.435,64.08478,     -63.87203
675.335,64.37492,     -61.61488
678.235,64.66544,     -57.71961
681.135,64.95573,     -54.90079
684.035,65.24640,     -50.08485
686.935,65.53730,     -42.92865
689.835,65.82735,     -35.63276
692.735,66.11799,     -32.60504
695.635,66.40823,     -29.23336
698.535,66.69966,     -28.98350
701.435,66.99030,     -25.28062
704.335,67.28103,     -24.98794
707.235,67.57202,     -24.37552
710.135,67.86215,     -22.24132
713.035,68.15266,     -16.08255
715.935,68.44251,     -17.75063
718.835,68.73303,     -16.93179
721.735,69.02283,     -18.45104
724.635,69.31260,     -19.15198
727.535,69.60287,     -18.35548
730.435,69.89274,     -15.30953
733.335,70.18246,     -15.47520
736.235,70.47201,     -16.16817
739.135,70.76168,     -15.28951
742.035,71.05111,     -15.29023
744.935,71.33997,     -15.29414
747.835,71.62961,     -15.29836
750.735,71.91878,     -15.30367
753.635,72.20774,     -15.30946
756.535,72.49706,     -15.31406
759.435,72.78629,     -15.31774
762.335,73.05563,     -15.32313
765.235,73.34310,     -15.32505
768.135,73.63187,     -15.32710
771.035,73.92844,     -15.33259
773.935,74.21958,     -15.33584
776.835,74.51049,     -15.33889
779.735,74.80002,     -15.34234
782.635,75.08894,     -15.34397
785.535,75.37744,     -15.34541
788.435,75.66612,     -15.34993
791.335,75.95574,     -15.34985
794.235,76.24436,     -15.49406
797.135,76.52963,     -15.07860
800.035,76.81663,     -14.78865
802.935,77.10881,     -14.94522
805.835,77.40444,     -14.84769
808.735,77.70058,     -14.77952
811.635,77.99307,     -14.93588
814.535,78.28635,     -15.52235
817.435,78.58033,     -14.93258
820.335,78.87365,     -14.90878
823.235,79.16504,     -15.10318
826.135,79.45739,     -14.90405
829.035,79.75082,     -16.72642
831.935,80.04308,     -15.13513
834.835,80.33339,     -14.85304
837.735,80.62495,     -15.39481
840.635,80.91590,     -15.28147
843.535,81.20622,     -15.54365
846.435,81.49760,     -15.38944
849.335,81.78844,     -15.39091
852.235,82.08053,     -15.39580
855.135,82.37015,     -15.39983
858.035,82.65824,     -15.40117
860.935,82.94774,     -15.40454
863.835,83.23949,     -15.40787
866.735,83.53145,     -15.40993
869.635,83.82409,     -15.41057
872.535,84.11694,     -15.41373
875.435,84.40862,     -15.41695
878.335,84.70103,     -15.41780
881.235,84.99307,     -15.41834
884.135,85.28449,     -15.41868
887.035,85.57495,     -15.42191
889.935,85.86613,     -15.41925
892.835,86.15658,     -15.42059
895.735,86.44661,     -15.42103
898.635,86.73578,     -15.41787
899.235,86.79590,     -15.41813