Folder: biomass.carbon/data-raw/raw_biomass (part 3)

File: Mix1.csv
#EXPORTTYPE:                 ,DATA SINGLE
#FILE:                       ,Mix1.ngb-st9
#FORMAT:                     ,NETZSCH5
#FTYPE:                      ,ANSI
#IDENTITY:                   ,Saras
#DECIMAL:                    ,POINT
#SEPARATOR:                  ,COMMA
#MTYPE:                      ,TG
#INSTRUMENT:                 ,NETZSCH TG 209F1 Libra
#PROJECT:                    ,PM
#DATE/TIME:                  ,15/01/2018 4:09:11 PM (UTC+11)
#CORR. FILE:                 ,
#TEMPCAL:                    ,TCALZERO.TCX
#LABORATORY:                 ,Capture Lab
#OPERATOR:                   ,Frank
#REMARK:                     ,
#SAMPLE:                     ,Mix1
#SAMPLE MASS /mg:            ,18.0880
#MATERIAL:                   ,zeolite
#TYPE OF CRUCIBLE:           ,Al2O3
#SAMPLE CRUCIBLE MASS /mg:   ,167.8963
#REFERENCE CRUCIBLE MASS /mg:,
#M.RANGE /mg:                ,2000
#CORR. CODE:                 ,090
#RANGE:                      ,32°C/10.0(K/min)/900°C
#SEGMENT:                    ,S1/1
#SEG. 1:                     ,32°C/10.0(K/min)/900°C

##Temp./°C,Time/min,Mass loss/mg
 31.48800, 0.00000,-1.716635e-003
 34.38800, 0.46198,-1.186212e-002
 37.28800, 0.73221,-2.192075e-002
 40.18800, 0.96984,-3.354892e-002
 43.08800, 1.20332,-4.787661e-002
 45.98800, 1.44629,-6.704203e-002
 48.88800, 1.70691,-8.930017e-002
 51.78800, 1.98685,      -0.11815
 54.68800, 2.28113,      -0.15401
 57.58800, 2.58003,      -0.19431
 60.48800, 2.87718,      -0.23661
 63.38800, 3.16944,      -0.27978
 66.28800, 3.45885,      -0.32509
 69.18800, 3.74691,      -0.37425
 72.08800, 4.03475,      -0.42061
 74.98800, 4.32320,      -0.46795
 77.88800, 4.61280,      -0.51759
 80.78800, 4.90261,      -0.56413
 83.68800, 5.19088,      -0.61093
 86.58800, 5.47930,      -0.65256
 89.48800, 5.76832,      -0.69298
 92.38800, 6.05851,      -0.73403
 95.28800, 6.34929,      -0.77029
 98.18800, 6.63790,      -0.80384
101.088, 6.92736,      -0.83537
103.988, 7.21707,      -0.86497
106.888, 7.50742,      -0.89133
109.788, 7.79776,      -0.91596
112.688, 8.08796,      -0.93928
115.588, 8.37839,      -0.96135
118.488, 8.66887,      -0.98223
121.388, 8.95891,      -1.00207
124.288, 9.24927,      -1.02545
127.188, 9.53960,      -1.04949
130.088, 9.82958,      -1.07289
132.988,10.11927,      -1.09784
135.888,10.40858,      -1.12128
138.788,10.69765,      -1.14458
141.688,10.98744,      -1.16845
144.588,11.27682,      -1.18727
147.488,11.56617,      -1.20457
150.388,11.85573,      -1.22223
153.288,12.14577,      -1.23838
156.188,12.43729,      -1.25524
159.088,12.72805,      -1.27500
161.988,13.01889,      -1.29535
164.888,13.30907,      -1.31725
167.788,13.59879,      -1.33980
170.688,13.88846,      -1.36671
173.588,14.17827,      -1.39246
176.488,14.46842,      -1.42407
179.388,14.75834,      -1.45857
182.288,15.04792,      -1.49315
185.188,15.33715,      -1.52820
188.088,15.62734,      -1.57068
190.988,15.91714,      -1.61156
193.888,16.20663,      -1.65368
196.788,16.49548,      -1.69638
199.688,16.78525,      -1.74089
202.588,17.07536,      -1.78586
205.488,17.36557,      -1.82943
208.388,17.65538,      -1.87422
211.288,17.94526,      -1.91770
214.188,18.23518,      -1.96088
217.088,18.52537,      -2.00428
219.988,18.81557,      -2.04675
222.888,19.10543,      -2.08774
225.788,19.39624,      -2.13391
228.688,19.68653,      -2.17714
231.588,19.97737,      -2.22620
234.488,20.26691,      -2.27507
237.388,20.55660,      -2.32395
240.288,20.84669,      -2.37569
243.188,21.13685,      -2.43076
246.088,21.42654,      -2.48953
248.988,21.71646,      -2.55135
251.888,22.00582,      -2.61503
254.788,22.29499,      -2.68624
257.688,22.58412,      -2.76686
260.588,22.87345,      -2.86204
263.488,23.16201,      -2.95390
266.388,23.44938,      -3.06184
269.288,23.73901,      -3.19249
272.188,24.02992,      -3.34333
275.088,24.31963,      -3.50524
277.988,24.60863,      -3.69349
280.888,24.89776,      -3.90025
283.788,25.18891,      -4.11855
286.688,25.48552,      -4.33578
289.588,25.77749,      -4.52902
292.488,26.06851,      -4.71690
295.388,26.36136,      -4.88467
298.288,26.64841,      -5.05815
301.188,26.94015,      -5.22463
304.088,27.23058,      -5.37705
306.988,27.52110,      -5.50504
309.888,27.81125,      -5.60632
312.788,28.10447,      -5.71903
315.688,28.39473,      -5.78421
318.588,28.68251,      -5.85616
321.488,28.96997,      -5.92271
324.388,29.25667,      -5.99868
327.288,29.54432,      -6.07073
330.188,29.83803,      -6.15589
333.088,30.13061,      -6.22940
335.988,30.42055,      -6.29958
338.888,30.71037,      -6.37169
341.788,30.99948,      -6.44726
344.688,31.28892,      -6.52390
347.588,31.57984,      -6.59927
350.488,31.86774,      -6.67387
353.388,32.16191,      -6.76244
356.288,32.45434,      -6.83649
359.188,32.74243,      -6.90357
362.088,33.02980,      -6.97784
364.988,33.32088,      -7.05897
367.888,33.61129,      -7.12100
370.788,33.90238,      -7.19269
373.688,34.19235,      -7.26348
376.588,34.48261,      -7.33654
379.488,34.77493,      -7.41425
382.388,35.06470,      -7.48829
385.288,35.35212,      -7.56482
388.188,35.64018,      -7.62329
391.088,35.93067,      -7.68971
393.988,36.22057,      -7.75232
396.888,36.51126,      -7.81210
399.788,36.80224,      -7.87095
402.688,37.09308,      -7.92601
405.588,37.38480,      -7.98157
408.488,37.67700,      -8.03596
411.388,37.96750,      -8.08522
414.288,38.25967,      -8.13967
417.188,38.54910,      -8.18647
420.088,38.84141,      -8.23458
422.988,39.13276,      -8.28423
425.888,39.42191,      -8.32806
428.788,39.71300,      -8.37300
431.688,40.00387,      -8.41379
434.588,40.29334,      -8.45477
437.488,40.58287,      -8.49716
440.388,40.87147,      -8.53615
443.288,41.16092,      -8.57574
446.188,41.44982,      -8.61184
449.088,41.73987,      -8.64904
451.988,42.03005,      -8.68565
454.888,42.31989,      -8.71951
457.788,42.61010,      -8.75202
460.688,42.89989,      -8.78177
463.588,43.19079,      -8.81484
466.488,43.48117,      -8.84568
469.388,43.77115,      -8.87505
472.288,44.06139,      -8.90249
475.188,44.35171,      -8.92900
478.088,44.64268,      -8.96020
480.988,44.93246,      -8.98479
483.888,45.22271,      -9.00470
486.788,45.51292,      -9.03015
489.688,45.80315,      -9.05050
492.588,46.09420,      -9.07485
495.488,46.38376,      -9.09596
498.388,46.67391,      -9.11444
501.288,46.96320,      -9.13050
504.188,47.25347,      -9.14843
507.088,47.54377,      -9.16618
509.988,47.83420,      -9.18421
512.888,48.12364,      -9.19808
515.788,48.41429,      -9.21298
518.688,48.70473,      -9.23126
521.588,48.99429,      -9.24517
524.488,49.28482,      -9.26168
527.388,49.57357,      -9.26810
530.288,49.86445,      -9.28477
533.188,50.15366,      -9.29685
536.088,50.44426,      -9.31081
538.988,50.73372,      -9.32355
541.888,51.02361,      -9.33761
544.788,51.31310,      -9.34685
547.688,51.60294,      -9.35865
550.588,51.89306,      -9.37220
553.488,52.18289,      -9.38687
556.388,52.47236,      -9.39524
559.288,52.76266,      -9.40815
562.188,53.05168,      -9.41693
565.088,53.34273,      -9.43126
567.988,53.63187,      -9.44203
570.888,53.92174,      -9.45186
573.788,54.21130,      -9.46335
576.688,54.50139,      -9.47580
579.588,54.79096,      -9.48635
582.488,55.08127,      -9.49891
585.388,55.37136,      -9.50945
588.288,55.66145,      -9.51976
591.188,55.95164,      -9.53066
594.088,56.24175,      -9.54086
596.988,56.53210,      -9.55484
599.888,56.82204,      -9.56694
602.788,57.11166,      -9.57730
605.688,57.40237,      -9.58905
608.588,57.69261,      -9.60042
611.488,57.98302,      -9.61128
614.388,58.27337,      -9.62105
617.288,58.56343,      -9.63369
620.188,58.85372,      -9.64396
623.088,59.14355,      -9.65368
625.988,59.43516,      -9.66744
628.888,59.72538,      -9.67743
631.788,60.01564,      -9.68920
634.688,60.30640,      -9.70186
637.588,60.59696,      -9.71493
640.488,60.88737,      -9.72751
643.388,61.17815,      -9.73872
646.288,61.46813,      -9.74420
649.188,61.75956,      -9.76372
652.088,62.05017,      -9.77723
654.988,62.34106,      -9.79131
657.888,62.63181,      -9.80270
660.788,62.92298,      -9.81335
663.688,63.21463,      -9.83064
666.588,63.50467,      -9.84632
669.488,63.79486,      -9.84900
672.388,64.08521,      -9.86819
675.288,64.37575,      -9.88275
678.188,64.66651,      -9.89691
681.088,64.95751,      -9.91040
683.988,65.24870,      -9.92605
686.888,65.53962,      -9.94196
689.788,65.83112,      -9.95755
692.688,66.12161,      -9.97249
695.588,66.41339,      -9.98765
698.488,66.70377,     -10.00240
701.388,66.99523,     -10.01856
704.288,67.28533,     -10.03677
707.188,67.57601,     -10.05172
710.088,67.86602,     -10.06706
712.988,68.15651,     -10.08460
715.888,68.44682,     -10.10467
718.788,68.73731,     -10.11900
721.688,69.02807,     -10.13751
724.588,69.31863,     -10.15419
727.488,69.60964,     -10.17090
730.388,69.90025,     -10.19067
733.288,70.19122,     -10.20855
736.188,70.48203,     -10.22585
739.088,70.77340,     -10.24643
741.988,71.06409,     -10.26353
744.888,71.35611,     -10.28154
747.788,71.64691,     -10.29619
750.688,71.93894,     -10.32030
753.588,72.22916,     -10.33649
756.488,72.52146,     -10.35698
759.388,72.81186,     -10.37509
762.288,73.10259,     -10.39259
765.188,73.39282,     -10.41184
768.088,73.68339,     -10.43022
770.988,73.97204,     -10.44850
773.888,74.26070,     -10.46426
776.788,74.54935,     -10.48190
779.688,74.83718,     -10.49496
782.588,75.12494,     -10.51118
785.488,75.41204,     -10.53012
788.388,75.70041,     -10.54065
791.288,75.98949,     -10.55558
794.188,76.27919,     -10.57075
797.088,76.56849,     -10.58118
799.988,76.85728,     -10.59287
802.888,77.14724,     -10.60217
805.788,77.43675,     -10.61511
808.688,77.72665,     -10.62327
811.588,78.01701,     -10.63094
814.488,78.30718,     -10.64459
817.388,78.59659,     -10.64960
820.288,78.88659,     -10.66032
823.188,79.17649,     -10.66664
826.088,79.46632,     -10.67574
828.988,79.75728,     -10.68359
831.888,80.04744,     -10.69256
834.788,80.33728,     -10.69577
837.688,80.62794,     -10.70863
840.588,80.91807,     -10.71821
843.488,81.20812,     -10.72559
846.388,81.49880,     -10.73099
849.288,81.78894,     -10.74241
852.188,82.07867,     -10.75399
855.088,82.36871,     -10.75797
857.988,82.65836,     -10.76720
860.888,82.94840,     -10.77275
863.788,83.23831,     -10.78360
866.688,83.52825,     -10.79324
869.588,83.81779,     -10.80276
872.488,84.10741,     -10.81295
875.388,84.39726,     -10.82234
878.288,84.68744,     -10.83042
881.188,84.97662,     -10.84315
884.088,85.26661,     -10.85258
886.988,85.55632,     -10.86122
889.888,85.84613,     -10.87054
892.788,86.13488,     -10.88180
895.688,86.42438,     -10.89108
898.588,86.71414,     -10.90052
899.388,86.79406,     -10.90429