Folder: biomass.carbon/data-raw/TGA (part 10)

File: L_TGA.csv
#EXPORTTYPE:                 ,DATA SINGLE
#FILE:                       ,L.ngb-st9
#FORMAT:                     ,NETZSCH5
#FTYPE:                      ,ANSI
#IDENTITY:                   ,Saras
#DECIMAL:                    ,POINT
#SEPARATOR:                  ,COMMA
#MTYPE:                      ,TG
#INSTRUMENT:                 ,NETZSCH TG 209F1 Libra
#PROJECT:                    ,IL
#DATE/TIME:                  ,9/03/2017 12:53:31 PM (UTC+11)
#CORR. FILE:                 ,
#TEMPCAL:                    ,TCALZERO.TCX
#LABORATORY:                 ,Capture Lab
#OPERATOR:                   ,NJN
#REMARK:                     ,Training run
#SAMPLE:                     ,L
#SAMPLE MASS /mg:            ,13.0009
#MATERIAL:                   ,KHCO3
#TYPE OF CRUCIBLE:           ,Al2O3
#SAMPLE CRUCIBLE MASS /mg:   ,310.8731
#REFERENCE CRUCIBLE MASS /mg:,
#M.RANGE /mg:                ,2000
#CORR. CODE:                 ,090
#RANGE:                      ,32°C/10.0(K/min)/800°C
#SEGMENT:                    ,S1/1
#SEG. 1:                     ,32°C/10.0(K/min)/800°C

##Temp./°C,Time/min,Mass loss/mg
 31.41300, 0.00000,-1.530940e-003
 32.56500, 0.25667,-5.878547e-003
 34.87500, 0.51333,-1.281144e-002
 37.87900, 0.77000,-2.386451e-002
 41.14400, 1.02667,-4.070906e-002
 44.33700, 1.28333,-6.123930e-002
 47.27900, 1.54000,-8.557241e-002
 49.96800, 1.79667,      -0.11370
 52.48700, 2.05333,      -0.14431
 54.94000, 2.31000,      -0.17677
 57.40800, 2.56667,      -0.21151
 59.92100, 2.82333,      -0.24735
 62.47800, 3.08000,      -0.28363
 65.06600, 3.33667,      -0.32135
 67.66200, 3.59333,      -0.36016
 70.25800, 3.85000,      -0.39763
 72.83900, 4.10667,      -0.43444
 75.41500, 4.36333,      -0.47015
 77.98200, 4.62000,      -0.50344
 80.55200, 4.87667,      -0.53504
 83.11800, 5.13333,      -0.56402
 85.68500, 5.39000,      -0.59161
 88.25500, 5.64667,      -0.61609
 90.82500, 5.90333,      -0.63917
 93.40500, 6.16000,      -0.66003
 95.97500, 6.41667,      -0.67897
 98.53900, 6.67333,      -0.69632
101.104, 6.93000,      -0.71194
103.668, 7.18667,      -0.72649
106.233, 7.44333,      -0.73881
108.801, 7.70000,      -0.74940
111.363, 7.95667,      -0.75955
113.925, 8.21333,      -0.76689
116.491, 8.47000,      -0.77520
119.056, 8.72667,      -0.78368
121.624, 8.98333,      -0.79014
124.188, 9.24000,      -0.79668
126.756, 9.49667,      -0.80499
129.322, 9.75333,      -0.81177
131.888,10.01000,      -0.81904
134.45,10.26667,      -0.82759
137.019,10.52333,      -0.83552
139.594,10.78000,      -0.84276
142.164,11.03667,      -0.85155
144.731,11.29333,      -0.85834
147.302,11.55000,      -0.86783
149.869,11.80667,      -0.87619
152.435,12.06333,      -0.88585
155.002,12.32000,      -0.89460
157.568,12.57667,      -0.90495
160.131,12.83333,      -0.91489
162.699,13.09000,      -0.92482
165.266,13.34667,      -0.93587
167.832,13.60333,      -0.94710
170.397,13.86000,      -0.95962
172.96,14.11667,      -0.97246
175.531,14.37333,      -0.98840
178.097,14.63000,      -1.00514
180.661,14.88667,      -1.02378
183.231,15.14333,      -1.04504
185.794,15.40000,      -1.06879
188.366,15.65667,      -1.09616
190.938,15.91333,      -1.12694
193.502,16.17000,      -1.16173
196.065,16.42667,      -1.20243
198.631,16.68333,      -1.24594
201.204,16.94000,      -1.29567
203.77,17.19667,      -1.35170
206.338,17.45333,      -1.41464
208.902,17.71000,      -1.48698
211.472,17.96667,      -1.56783
214.042,18.22333,      -1.65318
216.605,18.48000,      -1.72162
219.17,18.73667,      -1.80407
221.732,18.99333,      -1.87143
224.297,19.25000,      -1.93898
226.859,19.50667,      -2.00584
229.43,19.76333,      -2.07420
231.996,20.02000,      -2.14166
234.563,20.27667,      -2.21092
237.127,20.53333,      -2.29298
239.693,20.79000,      -2.36424
242.265,21.04667,      -2.44821
244.833,21.30333,      -2.53127
247.395,21.56000,      -2.62343
249.957,21.81667,      -2.70959
252.528,22.07333,      -2.79806
255.094,22.33000,      -2.88872
257.661,22.58667,      -2.98057
260.222,22.84333,      -3.07633
262.791,23.10000,      -3.17229
265.357,23.35667,      -3.27074
267.922,23.61333,      -3.36990
270.489,23.87000,      -3.47375
273.052,24.12667,      -3.57759
275.623,24.38333,      -3.68414
278.188,24.64000,      -3.79548
280.755,24.89667,      -3.90982
283.314,25.15333,      -4.02835
285.88,25.41000,      -4.15078
288.449,25.66667,      -4.28131
291.013,25.92333,      -4.41593
293.578,26.18000,      -4.55515
296.152,26.43667,      -4.70196
298.721,26.69333,      -4.85716
301.287,26.95000,      -5.01777
303.848,27.20667,      -5.18357
306.413,27.46333,      -5.35337
308.971,27.72000,      -5.52138
311.539,27.97667,      -5.68568
314.101,28.23333,      -5.84378
316.665,28.49000,      -5.99578
319.232,28.74667,      -6.13899
321.796,29.00333,      -6.27399
324.363,29.26000,      -6.40229
326.925,29.51667,      -6.52199
329.493,29.77333,      -6.63379
332.06,30.03000,      -6.73918
334.64,30.28667,      -6.83718
337.2,30.54333,      -6.92588
339.76,30.80000,      -6.99907
342.32,31.05667,      -7.07116
344.888,31.31333,      -7.13845
347.458,31.57000,      -7.20133
350.022,31.82667,      -7.25862
352.586,32.08333,      -7.31290
355.155,32.34000,      -7.36298
357.715,32.59667,      -7.41116
360.282,32.85333,      -7.45623
362.845,33.11000,      -7.50070
365.417,33.36667,      -7.54317
367.985,33.62333,      -7.58423
370.547,33.88000,      -7.62469
373.109,34.13667,      -7.66515
375.675,34.39333,      -7.70420
378.239,34.65000,      -7.74265
380.805,34.90667,      -7.78149
383.369,35.16333,      -7.81983
385.932,35.42000,      -7.85757
388.497,35.67667,      -7.89520
391.061,35.93333,      -7.93233
393.623,36.19000,      -7.96945
396.189,36.44667,      -8.00506
398.76,36.70333,      -8.04137
401.321,36.96000,      -8.07678
403.882,37.21667,      -8.11158
406.452,37.47333,      -8.14668
409.011,37.73000,      -8.18198
411.583,37.98667,      -8.21646
414.148,38.24333,      -8.24996
416.711,38.50000,      -8.28434
419.278,38.75667,      -8.31833
421.841,39.01333,      -8.35101
424.403,39.27000,      -8.38339
426.971,39.52667,      -8.41616
429.528,39.78333,      -8.44703
432.097,40.04000,      -8.47860
434.66,40.29667,      -8.50916
437.232,40.55333,      -8.53892
439.803,40.81000,      -8.56818
442.362,41.06667,      -8.59724
444.922,41.32333,      -8.62429
447.491,41.58000,      -8.65134
450.058,41.83667,      -8.67719
452.62,42.09333,      -8.70174
455.181,42.35000,      -8.72647
457.753,42.60667,      -8.74951
460.315,42.86333,      -8.77175
462.876,43.12000,      -8.79358
465.443,43.37667,      -8.81481
468.007,43.63333,      -8.83393
470.562,43.89000,      -8.85386
473.133,44.14667,      -8.87277
475.7,44.40333,      -8.89139
478.26,44.66000,      -8.90851
480.82,44.91667,      -8.92582
483.392,45.17333,      -8.94122
485.95,45.43000,      -8.95553
488.518,45.68667,      -8.97043
491.086,45.94333,      -8.98373
493.648,46.20000,      -8.99573
496.21,46.45667,      -9.00752
498.777,46.71333,      -9.01871
501.344,46.97000,      -9.02869
503.905,47.22667,      -9.03828
506.47,47.48333,      -9.04887
509.033,47.74000,      -9.05725
511.592,47.99667,      -9.06713
514.163,48.25333,      -9.07480
516.723,48.51000,      -9.08408
519.284,48.76667,      -9.09105
521.857,49.02333,      -9.09972
524.42,49.28000,      -9.10579
526.981,49.53667,      -9.11526
529.551,49.79333,      -9.12092
532.113,50.05000,      -9.12888
534.677,50.30667,      -9.13664
537.242,50.56333,      -9.14190
539.806,50.82000,      -9.15025
542.368,51.07667,      -9.15680
544.935,51.33333,      -9.16264
547.495,51.59000,      -9.16889
550.059,51.84667,      -9.17483
552.626,52.10333,      -9.18076
555.19,52.36000,      -9.18670
557.755,52.61667,      -9.19193
560.328,52.87333,      -9.19775
562.894,53.13000,      -9.20338
565.456,53.38667,      -9.20920
568.019,53.64333,      -9.21522
570.586,53.90000,      -9.22093
573.147,54.15667,      -9.22684
575.71,54.41333,      -9.23284
578.285,54.67000,      -9.23844
580.849,54.92667,      -9.24464
583.422,55.18333,      -9.25003
585.984,55.44000,      -9.25601
588.553,55.69667,      -9.26270
591.106,55.95333,      -9.26829
593.676,56.21000,      -9.27455
596.251,56.46667,      -9.28052
598.813,56.72333,      -9.28739
601.383,56.98000,      -9.29485
603.954,57.23667,      -9.30060
606.519,57.49333,      -9.30856
609.093,57.75000,      -9.31440
611.661,58.00667,      -9.32065
614.229,58.26333,      -9.32879
616.794,58.52000,      -9.33462
619.368,58.77667,      -9.34245
621.938,59.03333,      -9.34808
624.501,59.29000,      -9.35471
627.066,59.54667,      -9.36102
629.646,59.80333,      -9.36673
632.206,60.06000,      -9.37225
634.768,60.31667,      -9.37706
637.327,60.57333,      -9.38167
639.89,60.83000,      -9.38678
642.446,61.08667,      -9.39138
645.013,61.34333,      -9.39567
647.578,61.60000,      -9.39987
650.141,61.85667,      -9.40425
652.716,62.11333,      -9.40904
655.279,62.37000,      -9.41242
657.843,62.62667,      -9.41661
660.404,62.88333,      -9.42039
662.972,63.14000,      -9.42456
665.54,63.39667,      -9.42853
668.104,63.65333,      -9.43270
670.673,63.91000,      -9.43667
673.237,64.16667,      -9.44064
675.801,64.42333,      -9.44450
678.36,64.68000,      -9.44787
680.918,64.93667,      -9.45153
683.493,65.19333,      -9.45577
686.053,65.45000,      -9.46004
688.624,65.70667,      -9.46348
691.191,65.96333,      -9.46713
693.767,66.22000,      -9.47137
696.333,66.47667,      -9.47473
698.892,66.73333,      -9.47777
701.458,66.99000,      -9.48192
704.024,67.24667,      -9.48566
706.597,67.50333,      -9.48910
709.159,67.76000,      -9.49225
711.728,68.01667,      -9.49559
714.292,68.27333,      -9.49863
716.853,68.53000,      -9.50297
719.421,68.78667,      -9.50641
721.988,69.04333,      -9.51045
724.548,69.30000,      -9.51369
727.12,69.55667,      -9.51752
729.678,69.81333,      -9.52066
732.247,70.07000,      -9.52349
734.813,70.32667,      -9.52781
737.375,70.58333,      -9.53144
739.943,70.84000,      -9.53556
742.507,71.09667,      -9.53889
745.073,71.35333,      -9.54211
747.637,71.61000,      -9.54592
750.204,71.86667,      -9.54893
752.77,72.12333,      -9.55274
755.333,72.38000,      -9.55684
757.899,72.63667,      -9.56054
760.461,72.89333,      -9.56444
763.034,73.15000,      -9.56752
765.602,73.40667,      -9.57131
768.167,73.66333,      -9.57479
770.732,73.92000,      -9.57917
773.297,74.17667,      -9.58304
775.864,74.43333,      -9.58700
778.428,74.69000,      -9.59056
780.992,74.94667,      -9.59432
783.555,75.20333,      -9.59837
786.123,75.46000,      -9.60201
788.69,75.71667,      -9.60664
791.259,75.97333,      -9.60957
793.829,76.23000,      -9.61349
796.406,76.48667,      -9.61800
798.97,76.74333,      -9.62152
799.401,76.78667,      -9.62177

File: LL_TGA.csv
#EXPORTTYPE:                 ,DATA SINGLE
#FILE:                       ,LL.ngb-st9
#FORMAT:                     ,NETZSCH5
#FTYPE:                      ,ANSI
#IDENTITY:                   ,Saras
#DECIMAL:                    ,POINT
#SEPARATOR:                  ,COMMA
#MTYPE:                      ,TG
#INSTRUMENT:                 ,NETZSCH TG 209F1 Libra
#PROJECT:                    ,IL
#DATE/TIME:                  ,20/03/2017 2:16:03 PM (UTC+11)
#CORR. FILE:                 ,
#TEMPCAL:                    ,TCALZERO.TCX
#LABORATORY:                 ,Capture Lab
#OPERATOR:                   ,NJN
#REMARK:                     ,Training run
#SAMPLE:                     ,LL
#SAMPLE MASS /mg:            ,18.2313
#MATERIAL:                   ,zeolite
#TYPE OF CRUCIBLE:           ,Al2O3
#SAMPLE CRUCIBLE MASS /mg:   ,311.1406
#REFERENCE CRUCIBLE MASS /mg:,
#M.RANGE /mg:                ,2000
#CORR. CODE:                 ,090
#RANGE:                      ,32°C/10.0(K/min)/800°C
#SEGMENT:                    ,S1/1
#SEG. 1:                     ,32°C/10.0(K/min)/800°C

##Temp./°C,Time/min,Mass loss/mg
 31.60800, 0.00000,-1.675455e-003
 32.73300, 0.25667,-6.175685e-003
 34.96300, 0.51333,-1.443639e-002
 37.87500, 0.77000,-2.747258e-002
 41.08400, 1.02667,-4.655807e-002
 44.25800, 1.28333,-6.906567e-002
 47.21300, 1.54000,-9.650415e-002
 49.93100, 1.79667,      -0.12823
 52.47500, 2.05333,      -0.16410
 54.94400, 2.31000,      -0.20313
 57.41400, 2.56667,      -0.24534
 59.91600, 2.82333,      -0.29134
 62.46200, 3.08000,      -0.33942
 65.04600, 3.33667,      -0.39063
 67.63400, 3.59333,      -0.44316
 70.23200, 3.85000,      -0.49594
 72.82500, 4.10667,      -0.54837
 75.40600, 4.36333,      -0.59927
 77.98300, 4.62000,      -0.64977
 80.56600, 4.87667,      -0.69578
 83.13600, 5.13333,      -0.73682
 85.69900, 5.39000,      -0.77429
 88.25800, 5.64667,      -0.80827
 90.83600, 5.90333,      -0.83678
 93.41000, 6.16000,      -0.86184
 95.98300, 6.41667,      -0.88338
 98.54800, 6.67333,      -0.90153
101.113, 6.93000,      -0.91633
103.674, 7.18667,      -0.92968
106.232, 7.44333,      -0.93920
108.801, 7.70000,      -0.94610
111.359, 7.95667,      -0.95155
113.921, 8.21333,      -0.95709
116.482, 8.47000,      -0.96160
119.048, 8.72667,      -0.96549
121.617, 8.98333,      -0.96865
124.179, 9.24000,      -0.97147
126.747, 9.49667,      -0.97448
129.312, 9.75333,      -0.97686
131.874,10.01000,      -0.97943
134.445,10.26667,      -0.98179
137.019,10.52333,      -0.98454
139.58,10.78000,      -0.98824
142.148,11.03667,      -0.99135
144.718,11.29333,      -0.99464
147.286,11.55000,      -0.99932
149.853,11.80667,      -1.00380
152.423,12.06333,      -1.00815
154.991,12.32000,      -1.01430
157.554,12.57667,      -1.02054
160.117,12.83333,      -1.02769
162.688,13.09000,      -1.03604
165.258,13.34667,      -1.04527
167.824,13.60333,      -1.05250
170.387,13.86000,      -1.06463
172.952,14.11667,      -1.07467
175.519,14.37333,      -1.08531
178.09,14.63000,      -1.09884
180.659,14.88667,      -1.11299
183.223,15.14333,      -1.12824
185.786,15.40000,      -1.14649
188.354,15.65667,      -1.16697
190.923,15.91333,      -1.18844
193.494,16.17000,      -1.21283
196.059,16.42667,      -1.23913
198.624,16.68333,      -1.26754
201.195,16.94000,      -1.29878
203.764,17.19667,      -1.33171
206.327,17.45333,      -1.36624
208.895,17.71000,      -1.40168
211.459,17.96667,      -1.43853
214.025,18.22333,      -1.47667
216.592,18.48000,      -1.51572
219.161,18.73667,      -1.55647
221.728,18.99333,      -1.59903
224.294,19.25000,      -1.64548
226.855,19.50667,      -1.69474
229.426,19.76333,      -1.74940
231.99,20.02000,      -1.81146
234.562,20.27667,      -1.89402
237.125,20.53333,      -1.98148
239.694,20.79000,      -2.07695
242.259,21.04667,      -2.18921
244.825,21.30333,      -2.31957
247.388,21.56000,      -2.46673
249.959,21.81667,      -2.63310
252.53,22.07333,      -2.82156
255.094,22.33000,      -3.02502
257.66,22.58667,      -3.24467
260.233,22.84333,      -3.47883
262.792,23.10000,      -3.71739
265.354,23.35667,      -3.95964
267.918,23.61333,      -4.20010
270.478,23.87000,      -4.44015
273.039,24.12667,      -4.67029
275.601,24.38333,      -4.89254
278.171,24.64000,      -5.10488
280.733,24.89667,      -5.30982
283.296,25.15333,      -5.50325
285.872,25.41000,      -5.68838
288.444,25.66667,      -5.86721
290.998,25.92333,      -6.03673
293.558,26.18000,      -6.20195
296.131,26.43667,      -6.36426
298.701,26.69333,      -6.52637
301.267,26.95000,      -6.68827
303.831,27.20667,      -6.85537
306.396,27.46333,      -7.03027
308.96,27.72000,      -7.21348
311.529,27.97667,      -7.40968
314.092,28.23333,      -7.62258
316.666,28.49000,      -7.85828
319.232,28.74667,      -8.11609
321.806,29.00333,      -8.39928
324.362,29.26000,      -8.70889
326.929,29.51667,      -9.04419
329.498,29.77333,      -9.38709
332.063,30.03000,      -9.72918
334.631,30.28667,     -10.06168
337.201,30.54333,     -10.35847
339.759,30.80000,     -10.61967
342.317,31.05667,     -10.84076
344.881,31.31333,     -11.02855
347.444,31.57000,     -11.18414
350.007,31.82667,     -11.31502
352.574,32.08333,     -11.42570
355.137,32.34000,     -11.51968
357.705,32.59667,     -11.59806
360.274,32.85333,     -11.66513
362.841,33.11000,     -11.73100
365.405,33.36667,     -11.78957
367.97,33.62333,     -11.84613
370.533,33.88000,     -11.90080
373.098,34.13667,     -11.95035
375.663,34.39333,     -11.99900
378.224,34.65000,     -12.04675
380.792,34.90667,     -12.09250
383.357,35.16333,     -12.13754
385.922,35.42000,     -12.18357
388.482,35.67667,     -12.22921
391.047,35.93333,     -12.27183
393.613,36.19000,     -12.31505
396.183,36.44667,     -12.35606
398.743,36.70333,     -12.39888
401.304,36.96000,     -12.44038
403.872,37.21667,     -12.48048
406.444,37.47333,     -12.52048
409.01,37.73000,     -12.55938
411.57,37.98667,     -12.59847
414.133,38.24333,     -12.63606
416.702,38.50000,     -12.67284
419.266,38.75667,     -12.70973
421.83,39.01333,     -12.74561
424.399,39.27000,     -12.77978
426.957,39.52667,     -12.81446
429.519,39.78333,     -12.84793
432.087,40.04000,     -12.87800
434.65,40.29667,     -12.91007
437.219,40.55333,     -12.94203
439.779,40.81000,     -12.97219
442.348,41.06667,     -13.00204
444.914,41.32333,     -13.03009
447.47,41.58000,     -13.05725
450.041,41.83667,     -13.08419
452.602,42.09333,     -13.10984
455.171,42.35000,     -13.13407
457.73,42.60667,     -13.15842
460.292,42.86333,     -13.18285
462.864,43.12000,     -13.20408
465.423,43.37667,     -13.22562
467.991,43.63333,     -13.24693
470.559,43.89000,     -13.26806
473.125,44.14667,     -13.28858
475.688,44.40333,     -13.30809
478.257,44.66000,     -13.32631
480.816,44.91667,     -13.34412
483.383,45.17333,     -13.36253
485.953,45.43000,     -13.37953
488.513,45.68667,     -13.39613
491.075,45.94333,     -13.41173
493.643,46.20000,     -13.42913
496.203,46.45667,     -13.44382
498.768,46.71333,     -13.45981
501.334,46.97000,     -13.47430
503.893,47.22667,     -13.48899
506.458,47.48333,     -13.50347
509.03,47.74000,     -13.51815
511.585,47.99667,     -13.53173
514.15,48.25333,     -13.54511
516.716,48.51000,     -13.55818
519.277,48.76667,     -13.57206
521.842,49.02333,     -13.58453
524.408,49.28000,     -13.59679
526.971,49.53667,     -13.60886
529.533,49.79333,     -13.62102
532.097,50.05000,     -13.63148
534.668,50.30667,     -13.64274
537.226,50.56333,     -13.65530
539.793,50.82000,     -13.66735
542.359,51.07667,     -13.67830
544.927,51.33333,     -13.68854
547.495,51.59000,     -13.69839
550.054,51.84667,     -13.70943
552.623,52.10333,     -13.71886
555.186,52.36000,     -13.72630
557.749,52.61667,     -13.73713
560.323,52.87333,     -13.74565
562.883,53.13000,     -13.75598
565.443,53.38667,     -13.76460
568.013,53.64333,     -13.77451
570.581,53.90000,     -13.78203
573.15,54.15667,     -13.79233
575.717,54.41333,     -13.80084
578.269,54.67000,     -13.80955
580.839,54.92667,     -13.81944
583.411,55.18333,     -13.82353
585.971,55.44000,     -13.83472
588.541,55.69667,     -13.84080
591.106,55.95333,     -13.85048
593.666,56.21000,     -13.85826
596.237,56.46667,     -13.86443
598.801,56.72333,     -13.87349
601.372,56.98000,     -13.88095
603.936,57.23667,     -13.88681
606.499,57.49333,     -13.89416
609.072,57.75000,     -13.90071
611.63,58.00667,     -13.90776
614.194,58.26333,     -13.91530
616.764,58.52000,     -13.92163
619.33,58.77667,     -13.92936
621.893,59.03333,     -13.93509
624.458,59.29000,     -13.94212
627.022,59.54667,     -13.94824
629.594,59.80333,     -13.95285
632.153,60.06000,     -13.96157
634.72,60.31667,     -13.96628
637.29,60.57333,     -13.97108
639.852,60.83000,     -13.98098
642.418,61.08667,     -13.98688
644.986,61.34333,     -13.98998
647.548,61.60000,     -13.99387
650.114,61.85667,     -13.99866
652.678,62.11333,     -14.00655
655.242,62.37000,     -14.01454
657.805,62.62667,     -14.01752
660.378,62.88333,     -14.02139
662.941,63.14000,     -14.02657
665.507,63.39667,     -14.03174
668.072,63.65333,     -14.03721
670.644,63.91000,     -14.04368
673.21,64.16667,     -14.04694
675.774,64.42333,     -14.05191
678.336,64.68000,     -14.05797
680.902,64.93667,     -14.06173
683.462,65.19333,     -14.06699
686.024,65.45000,     -14.07194
688.598,65.70667,     -14.07749
691.164,65.96333,     -14.08324
693.738,66.22000,     -14.08698
696.3,66.47667,     -14.09374
698.873,66.73333,     -14.09608
701.43,66.99000,     -14.10773
704.001,67.24667,     -14.10797
706.573,67.50333,     -14.11041
709.131,67.76000,     -14.11476
711.7,68.01667,     -14.11900
714.262,68.27333,     -14.12444
716.834,68.53000,     -14.12778
719.391,68.78667,     -14.13252
721.956,69.04333,     -14.13786
724.52,69.30000,     -14.14090
727.085,69.55667,     -14.14513
729.657,69.81333,     -14.14866
732.223,70.07000,     -14.15179
734.798,70.32667,     -14.15692
737.364,70.58333,     -14.16105
739.923,70.84000,     -14.16327
742.482,71.09667,     -14.17059
745.054,71.35333,     -14.17221
747.626,71.61000,     -14.17622
750.188,71.86667,     -14.17794
752.752,72.12333,     -14.18184
755.319,72.38000,     -14.18555
757.883,72.63667,     -14.18904
760.45,72.89333,     -14.19164
763.005,73.15000,     -14.19434
765.57,73.40667,     -14.19892
768.144,73.66333,     -14.20060
770.709,73.92000,     -14.20377
773.274,74.17667,     -14.20615
775.841,74.43333,     -14.20801
778.402,74.69000,     -14.21287
780.972,74.94667,     -14.21513
783.543,75.20333,     -14.21777
786.107,75.46000,     -14.22072
788.675,75.71667,     -14.22355
791.243,75.97333,     -14.22658
793.807,76.23000,     -14.22720
796.377,76.48667,     -14.22922
798.948,76.74333,     -14.23052
799.502,76.79833,     -14.23133