Folder: biomass.carbon/data-raw/TGA (part 7)

File: I_TGA.csv
#EXPORTTYPE:                 ,DATA SINGLE
#FILE:                       ,I.ngb-st9
#FORMAT:                     ,NETZSCH5
#FTYPE:                      ,ANSI
#IDENTITY:                   ,Saras
#DECIMAL:                    ,POINT
#SEPARATOR:                  ,COMMA
#MTYPE:                      ,TG
#INSTRUMENT:                 ,NETZSCH TG 209F1 Libra
#PROJECT:                    ,IL
#DATE/TIME:                  ,17/03/2017 9:34:05 AM (UTC+11)
#CORR. FILE:                 ,
#TEMPCAL:                    ,TCALZERO.TCX
#LABORATORY:                 ,Capture Lab
#OPERATOR:                   ,NJN
#REMARK:                     ,Training run
#SAMPLE:                     ,I
#SAMPLE MASS /mg:            ,17.0964
#MATERIAL:                   ,KHCO3
#TYPE OF CRUCIBLE:           ,Al2O3
#SAMPLE CRUCIBLE MASS /mg:   ,311.1070
#REFERENCE CRUCIBLE MASS /mg:,
#M.RANGE /mg:                ,2000
#CORR. CODE:                 ,090
#RANGE:                      ,32°C/10.0(K/min)/800°C
#SEGMENT:                    ,S1/1
#SEG. 1:                     ,32°C/10.0(K/min)/800°C

##Temp./°C,Time/min,Mass loss/mg
 31.53400, 0.00000,-3.086157e-003
 32.67700, 0.25667,-4.902413e-003
 34.93000, 0.51333,-1.196805e-002
 37.86200, 0.77000,-2.395116e-002
 41.08300, 1.02667,-4.421021e-002
 44.25700, 1.28333,-6.707710e-002
 47.21000, 1.54000,-9.410746e-002
 49.92600, 1.79667,      -0.12642
 52.46100, 2.05333,      -0.16287
 54.93300, 2.31000,      -0.20344
 57.39900, 2.56667,      -0.24763
 59.90900, 2.82333,      -0.29493
 62.45800, 3.08000,      -0.34422
 65.03600, 3.33667,      -0.39633
 67.63000, 3.59333,      -0.45049
 70.22300, 3.85000,      -0.50581
 72.81300, 4.10667,      -0.56064
 75.39600, 4.36333,      -0.61507
 77.96900, 4.62000,      -0.66685
 80.53800, 4.87667,      -0.71733
 83.10900, 5.13333,      -0.76443
 85.67400, 5.39000,      -0.80891
 88.25400, 5.64667,      -0.84832
 90.82700, 5.90333,      -0.88575
 93.39900, 6.16000,      -0.92072
 95.96400, 6.41667,      -0.94996
 98.53600, 6.67333,      -0.97664
101.102, 6.93000,      -1.00074
103.671, 7.18667,      -1.02179
106.235, 7.44333,      -1.04031
108.795, 7.70000,      -1.05639
111.354, 7.95667,      -1.06965
113.915, 8.21333,      -1.08118
116.487, 8.47000,      -1.09120
119.049, 8.72667,      -1.09808
121.612, 8.98333,      -1.10573
124.181, 9.24000,      -1.11168
126.742, 9.49667,      -1.11717
129.307, 9.75333,      -1.12177
131.871,10.01000,      -1.12613
134.44,10.26667,      -1.13189
137.015,10.52333,      -1.13704
139.584,10.78000,      -1.14115
142.147,11.03667,      -1.14584
144.713,11.29333,      -1.15134
147.284,11.55000,      -1.15832
149.847,11.80667,      -1.16769
152.418,12.06333,      -1.17556
154.987,12.32000,      -1.18291
157.552,12.57667,      -1.19235
160.115,12.83333,      -1.20209
162.68,13.09000,      -1.21193
165.246,13.34667,      -1.22227
167.812,13.60333,      -1.23320
170.373,13.86000,      -1.24502
172.946,14.11667,      -1.25567
175.514,14.37333,      -1.26810
178.082,14.63000,      -1.28194
180.651,14.88667,      -1.29669
183.22,15.14333,      -1.31094
185.784,15.40000,      -1.32990
188.351,15.65667,      -1.34967
190.915,15.91333,      -1.36884
193.48,16.17000,      -1.39173
196.05,16.42667,      -1.41723
198.617,16.68333,      -1.44395
201.186,16.94000,      -1.47317
203.759,17.19667,      -1.50291
206.323,17.45333,      -1.53714
208.885,17.71000,      -1.57328
211.452,17.96667,      -1.61183
214.018,18.22333,      -1.65228
216.588,18.48000,      -1.69533
219.158,18.73667,      -1.73858
221.719,18.99333,      -1.78483
224.284,19.25000,      -1.83408
226.851,19.50667,      -1.88284
229.419,19.76333,      -1.93480
231.985,20.02000,      -1.99176
234.549,20.27667,      -2.05252
237.117,20.53333,      -2.12708
239.68,20.79000,      -2.19584
242.245,21.04667,      -2.28911
244.815,21.30333,      -2.37717
247.386,21.56000,      -2.47563
249.952,21.81667,      -2.58509
252.515,22.07333,      -2.70816
255.081,22.33000,      -2.84102
257.647,22.58667,      -2.98938
260.214,22.84333,      -3.15013
262.779,23.10000,      -3.32729
265.347,23.35667,      -3.51754
267.913,23.61333,      -3.72340
270.485,23.87000,      -3.94815
273.045,24.12667,      -4.18219
275.605,24.38333,      -4.42954
278.169,24.64000,      -4.68668
280.737,24.89667,      -4.94622
283.298,25.15333,      -5.20185
285.89,25.41000,      -5.45858
288.431,25.66667,      -5.71821
290.982,25.92333,      -5.96683
293.547,26.18000,      -6.21025
296.118,26.43667,      -6.45156
298.684,26.69333,      -6.69207
301.254,26.95000,      -6.92647
303.822,27.20667,      -7.16147
306.388,27.46333,      -7.39957
308.958,27.72000,      -7.63978
311.525,27.97667,      -7.88568
314.093,28.23333,      -8.14178
316.659,28.49000,      -8.40798
319.228,28.74667,      -8.67489
321.794,29.00333,      -8.93629
324.359,29.26000,      -9.18059
326.92,29.51667,      -9.40589
329.483,29.77333,      -9.60609
332.049,30.03000,      -9.78368
334.619,30.28667,      -9.94138
337.177,30.54333,     -10.07678
339.743,30.80000,     -10.19777
342.313,31.05667,     -10.30496
344.873,31.31333,     -10.40175
347.437,31.57000,     -10.48174
350.003,31.82667,     -10.55262
352.57,32.08333,     -10.61930
355.137,32.34000,     -10.67678
357.701,32.59667,     -10.73106
360.27,32.85333,     -10.77983
362.829,33.11000,     -10.82730
365.394,33.36667,     -10.86877
367.957,33.62333,     -10.90884
370.526,33.88000,     -10.94729
373.089,34.13667,     -10.98525
375.657,34.39333,     -11.02070
378.22,34.65000,     -11.05705
380.789,34.90667,     -11.09299
383.348,35.16333,     -11.12684
385.911,35.42000,     -11.16097
388.482,35.67667,     -11.19140
391.051,35.93333,     -11.22623
393.609,36.19000,     -11.25906
396.169,36.44667,     -11.28977
398.736,36.70333,     -11.32108
401.301,36.96000,     -11.35058
403.864,37.21667,     -11.38219
406.429,37.47333,     -11.41068
408.996,37.73000,     -11.44088
411.56,37.98667,     -11.47007
414.12,38.24333,     -11.49966
416.693,38.50000,     -11.52774
419.254,38.75667,     -11.55503
421.829,39.01333,     -11.58171
424.386,39.27000,     -11.60799
426.954,39.52667,     -11.63556
429.517,39.78333,     -11.65983
432.081,40.04000,     -11.68600
434.644,40.29667,     -11.71177
437.209,40.55333,     -11.73673
439.776,40.81000,     -11.76069
442.335,41.06667,     -11.78395
444.905,41.32333,     -11.80670
447.472,41.58000,     -11.82904
450.032,41.83667,     -11.85140
452.596,42.09333,     -11.87204
455.161,42.35000,     -11.89268
457.727,42.60667,     -11.91201
460.291,42.86333,     -11.93125
462.852,43.12000,     -11.95018
465.417,43.37667,     -11.96861
467.984,43.63333,     -11.98654
470.553,43.89000,     -12.00236
473.123,44.14667,     -12.01868
475.684,44.40333,     -12.03430
478.246,44.66000,     -12.05121
480.808,44.91667,     -12.06712
483.376,45.17333,     -12.08323
485.938,45.43000,     -12.09683
488.502,45.68667,     -12.10974
491.074,45.94333,     -12.12273
493.639,46.20000,     -12.13473
496.195,46.45667,     -12.14863
498.755,46.71333,     -12.16282
501.32,46.97000,     -12.17590
503.89,47.22667,     -12.18608
506.454,47.48333,     -12.19817
509.022,47.74000,     -12.20925
511.583,47.99667,     -12.21963
514.148,48.25333,     -12.23101
516.713,48.51000,     -12.24228
519.276,48.76667,     -12.25406
521.847,49.02333,     -12.26202
524.413,49.28000,     -12.27259
526.975,49.53667,     -12.28286
529.542,49.79333,     -12.29302
532.11,50.05000,     -12.30178
534.677,50.30667,     -12.31034
537.241,50.56333,     -12.31739
539.805,50.82000,     -12.32875
542.367,51.07667,     -12.33640
544.931,51.33333,     -12.34584
547.494,51.59000,     -12.35279
550.057,51.84667,     -12.36353
552.628,52.10333,     -12.37016
555.206,52.36000,     -12.37859
557.769,52.61667,     -12.38623
560.332,52.87333,     -12.39415
562.899,53.13000,     -12.40217
565.464,53.38667,     -12.40879
568.028,53.64333,     -12.41851
570.589,53.90000,     -12.42713
573.155,54.15667,     -12.43223
575.727,54.41333,     -12.43833
578.288,54.67000,     -12.44554
580.85,54.92667,     -12.45513
583.418,55.18333,     -12.46253
585.985,55.44000,     -12.46931
588.561,55.69667,     -12.47339
591.121,55.95333,     -12.48508
593.687,56.21000,     -12.48905
596.255,56.46667,     -12.49902
598.829,56.72333,     -12.50258
601.395,56.98000,     -12.50745
603.956,57.23667,     -12.51691
606.514,57.49333,     -12.52166
609.08,57.75000,     -12.53321
611.656,58.00667,     -12.53305
614.208,58.26333,     -12.53830
616.779,58.52000,     -12.55012
619.345,58.77667,     -12.55396
621.912,59.03333,     -12.56018
624.474,59.29000,     -12.56681
627.039,59.54667,     -12.57133
629.605,59.80333,     -12.57735
632.167,60.06000,     -12.58246
634.734,60.31667,     -12.58937
637.298,60.57333,     -12.59458
639.867,60.83000,     -12.59958
642.424,61.08667,     -12.60538
644.99,61.34333,     -12.61068
647.56,61.60000,     -12.61537
650.122,61.85667,     -12.62086
652.685,62.11333,     -12.62955
655.25,62.37000,     -12.63323
657.812,62.62667,     -12.63992
660.38,62.88333,     -12.64589
662.947,63.14000,     -12.65007
665.513,63.39667,     -12.65454
668.078,63.65333,     -12.65801
670.642,63.91000,     -12.66758
673.208,64.16667,     -12.67364
675.774,64.42333,     -12.67741
678.344,64.68000,     -12.68387
680.912,64.93667,     -12.68742
683.466,65.19333,     -12.69279
686.039,65.45000,     -12.69734
688.6,65.70667,     -12.70319
691.166,65.96333,     -12.70844
693.739,66.22000,     -12.71418
696.3,66.47667,     -12.72084
698.871,66.73333,     -12.72458
701.434,66.99000,     -12.73102
704.01,67.24667,     -12.73376
706.57,67.50333,     -12.73851
709.137,67.76000,     -12.74405
711.702,68.01667,     -12.75250
714.262,68.27333,     -12.75564
716.827,68.53000,     -12.75978
719.396,68.78667,     -12.76272
721.958,69.04333,     -12.77206
724.526,69.30000,     -12.77599
727.092,69.55667,     -12.78383
729.659,69.81333,     -12.78716
732.219,70.07000,     -12.79029
734.783,70.32667,     -12.79572
737.357,70.58333,     -12.79984
739.917,70.84000,     -12.80718
742.487,71.09667,     -12.81269
745.052,71.35333,     -12.81461
747.619,71.61000,     -12.82202
750.195,71.86667,     -12.82743
752.753,72.12333,     -12.83204
755.322,72.38000,     -12.83584
757.882,72.63667,     -12.84615
760.453,72.89333,     -12.84604
763.016,73.15000,     -12.85133
765.576,73.40667,     -12.85712
768.139,73.66333,     -12.85990
770.708,73.92000,     -12.86928
773.281,74.17667,     -12.87094
775.848,74.43333,     -12.87511
778.415,74.69000,     -12.88177
780.987,74.94667,     -12.88342
783.554,75.20333,     -12.89017
786.117,75.46000,     -12.89571
788.676,75.71667,     -12.89915
791.244,75.97333,     -12.90318
793.821,76.23000,     -12.90989
796.383,76.48667,     -12.91132
798.957,76.74333,     -12.92102
799.357,76.78500,     -12.92179

File: II_TGA.csv
#EXPORTTYPE:                 ,DATA SINGLE
#FILE:                       ,II.ngb-st9
#FORMAT:                     ,NETZSCH5
#FTYPE:                      ,ANSI
#IDENTITY:                   ,Saras
#DECIMAL:                    ,POINT
#SEPARATOR:                  ,COMMA
#MTYPE:                      ,TG
#INSTRUMENT:                 ,NETZSCH TG 209F1 Libra
#PROJECT:                    ,IL
#DATE/TIME:                  ,17/03/2017 11:28:17 AM (UTC+11)
#CORR. FILE:                 ,
#TEMPCAL:                    ,TCALZERO.TCX
#LABORATORY:                 ,Capture Lab
#OPERATOR:                   ,NJN
#REMARK:                     ,Training run
#SAMPLE:                     ,II
#SAMPLE MASS /mg:            ,10.9508
#MATERIAL:                   ,KHCO3
#TYPE OF CRUCIBLE:           ,Al2O3
#SAMPLE CRUCIBLE MASS /mg:   ,311.1153
#REFERENCE CRUCIBLE MASS /mg:,
#M.RANGE /mg:                ,2000
#CORR. CODE:                 ,090
#RANGE:                      ,32°C/10.0(K/min)/800°C
#SEGMENT:                    ,S1/1
#SEG. 1:                     ,32°C/10.0(K/min)/800°C

##Temp./°C,Time/min,Mass loss/mg
 31.63100, 0.00000,-1.008325e-003
 32.74900, 0.25667,-5.058767e-003
 34.99000, 0.51333,-1.098456e-002
 37.91600, 0.77000,-2.022946e-002
 41.12500, 1.02667,-3.675845e-002
 44.28700, 1.28333,-5.491699e-002
 47.22600, 1.54000,-7.726200e-002
 49.92800, 1.79667,      -0.10175
 52.46900, 2.05333,      -0.12858
 54.94500, 2.31000,      -0.15805
 57.41700, 2.56667,      -0.18806
 59.92800, 2.82333,      -0.21935
 62.48700, 3.08000,      -0.25136
 65.06800, 3.33667,      -0.28375
 67.65400, 3.59333,      -0.31595
 70.24900, 3.85000,      -0.34702
 72.83600, 4.10667,      -0.37635
 75.40500, 4.36333,      -0.40503
 77.98200, 4.62000,      -0.43106
 80.54600, 4.87667,      -0.45522
 83.11500, 5.13333,      -0.47732
 85.68300, 5.39000,      -0.49741
 88.24900, 5.64667,      -0.51348
 90.82100, 5.90333,      -0.52916
 93.38900, 6.16000,      -0.54361
 95.95900, 6.41667,      -0.55518
 98.52700, 6.67333,      -0.56604
101.101, 6.93000,      -0.57355
103.66, 7.18667,      -0.58028
106.225, 7.44333,      -0.58820
108.792, 7.70000,      -0.59321
111.352, 7.95667,      -0.59826
113.915, 8.21333,      -0.60209
116.48, 8.47000,      -0.60601
119.049, 8.72667,      -0.60979
121.615, 8.98333,      -0.61273
124.179, 9.24000,      -0.61558
126.75, 9.49667,      -0.61889
129.319, 9.75333,      -0.62138
131.882,10.01000,      -0.62344
134.443,10.26667,      -0.62819
137.013,10.52333,      -0.63013
139.588,10.78000,      -0.63316
142.158,11.03667,      -0.63655
144.72,11.29333,      -0.64074
147.284,11.55000,      -0.64691
149.852,11.80667,      -0.65199
152.422,12.06333,      -0.65825
154.99,12.32000,      -0.66590
157.558,12.57667,      -0.67225
160.123,12.83333,      -0.68199
162.69,13.09000,      -0.69183
165.25,13.34667,      -0.70036
167.821,13.60333,      -0.71130
170.388,13.86000,      -0.72213
172.958,14.11667,      -0.73367
175.528,14.37333,      -0.74591
178.096,14.63000,      -0.75764
180.66,14.88667,      -0.77018
183.223,15.14333,      -0.78573
185.792,15.40000,      -0.80150
188.358,15.65667,      -0.81856
190.923,15.91333,      -0.83774
193.489,16.17000,      -0.85783
196.058,16.42667,      -0.87913
198.63,16.68333,      -0.90105
201.196,16.94000,      -0.92517
203.765,17.19667,      -0.94931
206.333,17.45333,      -0.97444
208.9,17.71000,      -0.99778
211.462,17.96667,      -1.02403
214.026,18.22333,      -1.04997
216.59,18.48000,      -1.07722
219.155,18.73667,      -1.10478
221.723,18.99333,      -1.13423
224.292,19.25000,      -1.16598
226.863,19.50667,      -1.20075
229.427,19.76333,      -1.24030
231.991,20.02000,      -1.28196
234.555,20.27667,      -1.32902
237.122,20.53333,      -1.38208
239.691,20.79000,      -1.44095
242.258,21.04667,      -1.51531
244.822,21.30333,      -1.58607
247.39,21.56000,      -1.67833
249.958,21.81667,      -1.76080
252.523,22.07333,      -1.85755
255.088,22.33000,      -1.95632
257.656,22.58667,      -2.06258
260.217,22.84333,      -2.17013
262.783,23.10000,      -2.27789
265.353,23.35667,      -2.38904
267.913,23.61333,      -2.50130
270.481,23.87000,      -2.60905
273.049,24.12667,      -2.71739
275.611,24.38333,      -2.82604
278.176,24.64000,      -2.92908
280.739,24.89667,      -3.03162
283.305,25.15333,      -3.13035
285.869,25.41000,      -3.22898
288.461,25.66667,      -3.32681
291.008,25.92333,      -3.42353
293.57,26.18000,      -3.52005
296.134,26.43667,      -3.61966
298.7,26.69333,      -3.72017
301.264,26.95000,      -3.82667
303.831,27.20667,      -3.93847
306.4,27.46333,      -4.05667
308.96,27.72000,      -4.18718
311.537,27.97667,      -4.32448
314.101,28.23333,      -4.47958
316.67,28.49000,      -4.64428
319.241,28.74667,      -4.82048
321.801,29.00333,      -5.00629
324.371,29.26000,      -5.18659
326.928,29.51667,      -5.36209
329.494,29.77333,      -5.52659
332.064,30.03000,      -5.66608
334.627,30.28667,      -5.79038
337.195,30.54333,      -5.89217
339.756,30.80000,      -5.98337
342.32,31.05667,      -6.06256
344.883,31.31333,      -6.12675
347.445,31.57000,      -6.18543
350.014,31.82667,      -6.24302
352.582,32.08333,      -6.29570
355.147,32.34000,      -6.34448
357.714,32.59667,      -6.39186
360.276,32.85333,      -6.43423
362.842,33.11000,      -6.47400
365.407,33.36667,      -6.51067
367.974,33.62333,      -6.54533
370.537,33.88000,      -6.57919
373.104,34.13667,      -6.61035
375.665,34.39333,      -6.64070
378.23,34.65000,      -6.66875
380.797,34.90667,      -6.69710
383.36,35.16333,      -6.72464
385.929,35.42000,      -6.75227
388.491,35.67667,      -6.77750
391.068,35.93333,      -6.80232
393.625,36.19000,      -6.82765
396.184,36.44667,      -6.85437
398.744,36.70333,      -6.88018
401.309,36.96000,      -6.90448
403.876,37.21667,      -6.92718
406.448,37.47333,      -6.95198
409.015,37.73000,      -6.97527
411.577,37.98667,      -6.99877
414.145,38.24333,      -7.02176
416.704,38.50000,      -7.04485
419.269,38.75667,      -7.06763
421.836,39.01333,      -7.08781
424.396,39.27000,      -7.11109
426.966,39.52667,      -7.12966
429.535,39.78333,      -7.15073
432.099,40.04000,      -7.17110
434.66,40.29667,      -7.19056
437.223,40.55333,      -7.20893
439.784,40.81000,      -7.22919
442.349,41.06667,      -7.24724
444.919,41.32333,      -7.26539
447.481,41.58000,      -7.28325
450.044,41.83667,      -7.29929
452.61,42.09333,      -7.31633
455.173,42.35000,      -7.33228
457.738,42.60667,      -7.34831
460.302,42.86333,      -7.36235
462.868,43.12000,      -7.37748
465.429,43.37667,      -7.39271
467.994,43.63333,      -7.40824
470.567,43.89000,      -7.41765
473.124,44.14667,      -7.43418
475.696,44.40333,      -7.44109
478.255,44.66000,      -7.45901
480.815,44.91667,      -7.47152
483.385,45.17333,      -7.48103
485.949,45.43000,      -7.49283
488.512,45.68667,      -7.50083
491.075,45.94333,      -7.51504
493.648,46.20000,      -7.51952
496.208,46.45667,      -7.53252
498.77,46.71333,      -7.54371
501.33,46.97000,      -7.55420
503.896,47.22667,      -7.56298
506.461,47.48333,      -7.57247
509.025,47.74000,      -7.58195
511.591,47.99667,      -7.58853
514.156,48.25333,      -7.59820
516.722,48.51000,      -7.60368
519.277,48.76667,      -7.61586
521.851,49.02333,      -7.62152
524.416,49.28000,      -7.63299
526.982,49.53667,      -7.63856
529.546,49.79333,      -7.64652
532.105,50.05000,      -7.65538
534.674,50.30667,      -7.66094
537.241,50.56333,      -7.66579
539.803,50.82000,      -7.67605
542.37,51.07667,      -7.68010
544.928,51.33333,      -7.68865
547.491,51.59000,      -7.69549
550.058,51.84667,      -7.70153
552.622,52.10333,      -7.70937
555.196,52.36000,      -7.71439
557.76,52.61667,      -7.71893
560.323,52.87333,      -7.72705
562.894,53.13000,      -7.73328
565.457,53.38667,      -7.73890
568.026,53.64333,      -7.74451
570.59,53.90000,      -7.74983
573.162,54.15667,      -7.75563
575.73,54.41333,      -7.76173
578.293,54.67000,      -7.76814
580.86,54.92667,      -7.77403
583.427,55.18333,      -7.78133
585.994,55.44000,      -7.78421
588.555,55.69667,      -7.78950
591.126,55.95333,      -7.79618
593.693,56.21000,      -7.80135
596.255,56.46667,      -7.80622
598.837,56.72333,      -7.81168
601.404,56.98000,      -7.81665
603.96,57.23667,      -7.82171
606.53,57.49333,      -7.82736
609.094,57.75000,      -7.83211
611.664,58.00667,      -7.83635
614.231,58.26333,      -7.84189
616.795,58.52000,      -7.84692
619.359,58.77667,      -7.85245
621.922,59.03333,      -7.85739
624.484,59.29000,      -7.86211
627.05,59.54667,      -7.86583
629.61,59.80333,      -7.87085
632.182,60.06000,      -7.87336
634.74,60.31667,      -7.87847
637.307,60.57333,      -7.88368
639.871,60.83000,      -7.88928
642.437,61.08667,      -7.89238
645.001,61.34333,      -7.89738
647.568,61.60000,      -7.90337
650.134,61.85667,      -7.90706
652.695,62.11333,      -7.91085
655.263,62.37000,      -7.91573
657.824,62.62667,      -7.92031
660.4,62.88333,      -7.92328
662.958,63.14000,      -7.92697
665.519,63.39667,      -7.93094
668.088,63.65333,      -7.93351
670.653,63.91000,      -7.93818
673.213,64.16667,      -7.94174
675.783,64.42333,      -7.94480
678.347,64.68000,      -7.94756
680.914,64.93667,      -7.95292
683.478,65.19333,      -7.95568
686.047,65.45000,      -7.96004
688.616,65.70667,      -7.96478
691.192,65.96333,      -7.96803
693.752,66.22000,      -7.97068
696.315,66.47667,      -7.97433
698.879,66.73333,      -7.97818
701.451,66.99000,      -7.98042
704.016,67.24667,      -7.98276
706.583,67.50333,      -7.98631
709.148,67.76000,      -7.99105
711.713,68.01667,      -7.99569
714.278,68.27333,      -7.99754
716.842,68.53000,      -7.99887
719.41,68.78667,      -8.00221
721.98,69.04333,      -8.00745
724.545,69.30000,      -8.01069
727.107,69.55667,      -8.01393
729.673,69.81333,      -8.01566
732.239,70.07000,      -8.01879
734.799,70.32667,      -8.02252
737.37,70.58333,      -8.02584
739.935,70.84000,      -8.03107
742.497,71.09667,      -8.03629
745.07,71.35333,      -8.03930
747.635,71.61000,      -8.04202
750.203,71.86667,      -8.04823
752.764,72.12333,      -8.05094
755.326,72.38000,      -8.05574
757.89,72.63667,      -8.05904
760.456,72.89333,      -8.06114
763.024,73.15000,      -8.06843
765.591,73.40667,      -8.07181
768.155,73.66333,      -8.07500
770.721,73.92000,      -8.07877
773.289,74.17667,      -8.08484
775.868,74.43333,      -8.08800
778.436,74.69000,      -8.08976
780.999,74.94667,      -8.09561
783.571,75.20333,      -8.09956
786.133,75.46000,      -8.10261
788.691,75.71667,      -8.10535
791.267,75.97333,      -8.10847
793.833,76.23000,      -8.11559
796.408,76.48667,      -8.11910
798.97,76.74333,      -8.12072
799.236,76.77000,      -8.12092