Folder: biomass.carbon/data-raw/TGA

Note: README.md
# recal_traits is a thesis chapter

File: A_TGA.csv
#EXPORTTYPE:                 ,DATA SINGLE
#FILE:                       ,A.ngb-st9
#FORMAT:                     ,NETZSCH5
#FTYPE:                      ,ANSI
#IDENTITY:                   ,Saras
#DECIMAL:                    ,POINT
#SEPARATOR:                  ,COMMA
#MTYPE:                      ,TG
#INSTRUMENT:                 ,NETZSCH TG 209F1 Libra
#PROJECT:                    ,IL
#DATE/TIME:                  ,10/03/2017 11:19:17 AM (UTC+11)
#CORR. FILE:                 ,
#TEMPCAL:                    ,TCALZERO.TCX
#LABORATORY:                 ,Capture Lab
#OPERATOR:                   ,NJN
#REMARK:                     ,Training run
#SAMPLE:                     ,A
#SAMPLE MASS /mg:            ,18.9615
#MATERIAL:                   ,KHCO3
#TYPE OF CRUCIBLE:           ,Al2O3
#SAMPLE CRUCIBLE MASS /mg:   ,311.9048
#REFERENCE CRUCIBLE MASS /mg:,
#M.RANGE /mg:                ,2000
#CORR. CODE:                 ,090
#RANGE:                      ,32°C/10.0(K/min)/800°C
#SEGMENT:                    ,S1/1
#SEG. 1:                     ,32°C/10.0(K/min)/800°C

##Temp./°C,Time/min,Mass loss/mg
 31.45300, 0.00000,-9.310921e-004
 32.57500, 0.25667,-5.954968e-003
 34.85600, 0.51333,-1.456892e-002
 37.83700, 0.77000,-2.847381e-002
 41.10700, 1.02667,-4.811487e-002
 44.30200, 1.28333,-7.164929e-002
 47.25800, 1.54000,      -0.10062
 49.95600, 1.79667,      -0.13444
 52.48900, 2.05333,      -0.17214
 54.94200, 2.31000,      -0.21409
 57.40700, 2.56667,      -0.25871
 59.90600, 2.82333,      -0.30650
 62.46000, 3.08000,      -0.35725
 65.04500, 3.33667,      -0.41117
 67.64400, 3.59333,      -0.46569
 70.24300, 3.85000,      -0.52174
 72.82700, 4.10667,      -0.57713
 75.40700, 4.36333,      -0.63014
 77.98000, 4.62000,      -0.68166
 80.55500, 4.87667,      -0.72995
 83.12700, 5.13333,      -0.77544
 85.69900, 5.39000,      -0.81612
 88.26600, 5.64667,      -0.85319
 90.83800, 5.90333,      -0.88627
 93.41200, 6.16000,      -0.91474
 95.99000, 6.41667,      -0.93980
 98.55600, 6.67333,      -0.96102
101.118, 6.93000,      -0.97912
103.676, 7.18667,      -0.99397
106.238, 7.44333,      -1.00660
108.802, 7.70000,      -1.01681
111.361, 7.95667,      -1.02356
113.93, 8.21333,      -1.02999
116.488, 8.47000,      -1.03551
119.05, 8.72667,      -1.04098
121.619, 8.98333,      -1.04575
124.179, 9.24000,      -1.05006
126.743, 9.49667,      -1.05429
129.317, 9.75333,      -1.05908
131.884,10.01000,      -1.06355
134.45,10.26667,      -1.06899
137.015,10.52333,      -1.07432
139.586,10.78000,      -1.08055
142.156,11.03667,      -1.08926
144.728,11.29333,      -1.09615
147.291,11.55000,      -1.10652
149.854,11.80667,      -1.11619
152.422,12.06333,      -1.12645
154.991,12.32000,      -1.13781
157.559,12.57667,      -1.14965
160.124,12.83333,      -1.16079
162.694,13.09000,      -1.17253
165.261,13.34667,      -1.18467
167.827,13.60333,      -1.19689
170.388,13.86000,      -1.20913
172.954,14.11667,      -1.22197
175.524,14.37333,      -1.23561
178.089,14.63000,      -1.25094
180.655,14.88667,      -1.26659
183.224,15.14333,      -1.28454
185.793,15.40000,      -1.30300
188.36,15.65667,      -1.32367
190.927,15.91333,      -1.34674
193.496,16.17000,      -1.37093
196.058,16.42667,      -1.39773
198.627,16.68333,      -1.42715
201.196,16.94000,      -1.45867
203.761,17.19667,      -1.49120
206.328,17.45333,      -1.52505
208.894,17.71000,      -1.56069
211.463,17.96667,      -1.59813
214.028,18.22333,      -1.63627
216.593,18.48000,      -1.67713
219.159,18.73667,      -1.72078
221.728,18.99333,      -1.76783
224.298,19.25000,      -1.81789
226.863,19.50667,      -1.87314
229.43,19.76333,      -1.93630
231.999,20.02000,      -2.02256
234.565,20.27667,      -2.10682
237.135,20.53333,      -2.20248
239.702,20.79000,      -2.31224
242.267,21.04667,      -2.43671
244.831,21.30333,      -2.57967
247.397,21.56000,      -2.74293
249.971,21.81667,      -2.92189
252.536,22.07333,      -3.11925
255.099,22.33000,      -3.33251
257.665,22.58667,      -3.56197
260.223,22.84333,      -3.79603
262.783,23.10000,      -4.03579
265.35,23.35667,      -4.27704
267.909,23.61333,      -4.51470
270.473,23.87000,      -4.74485
273.039,24.12667,      -4.96899
275.601,24.38333,      -5.18974
278.163,24.64000,      -5.39828
280.73,24.89667,      -5.60342
283.293,25.15333,      -5.80305
285.861,25.41000,      -6.00118
288.429,25.66667,      -6.19601
290.993,25.92333,      -6.39213
293.56,26.18000,      -6.59385
296.133,26.43667,      -6.79976
298.71,26.69333,      -7.01477
301.279,26.95000,      -7.24207
303.84,27.20667,      -7.49037
306.405,27.46333,      -7.75687
308.969,27.72000,      -8.04908
311.539,27.97667,      -8.37408
314.111,28.23333,      -8.72258
316.676,28.49000,      -9.09028
319.239,28.74667,      -9.46139
321.803,29.00333,      -9.82139
324.364,29.26000,     -10.14329
326.922,29.51667,     -10.42109
329.482,29.77333,     -10.65479
332.044,30.03000,     -10.84419
334.604,30.28667,     -11.00258
337.171,30.54333,     -11.14008
339.743,30.80000,     -11.26407
342.307,31.05667,     -11.37426
344.877,31.31333,     -11.47665
347.446,31.57000,     -11.57173
350.013,31.82667,     -11.65632
352.578,32.08333,     -11.73310
355.145,32.34000,     -11.80378
357.711,32.59667,     -11.87176
360.273,32.85333,     -11.93373
362.838,33.11000,     -11.99280
365.402,33.36667,     -12.04747
367.966,33.62333,     -12.10103
370.529,33.88000,     -12.15159
373.098,34.13667,     -12.20035
375.66,34.39333,     -12.24901
378.227,34.65000,     -12.29675
380.793,34.90667,     -12.34280
383.355,35.16333,     -12.38844
385.923,35.42000,     -12.43407
388.487,35.67667,     -12.47840
391.049,35.93333,     -12.52243
393.61,36.19000,     -12.56545
396.173,36.44667,     -12.60927
398.737,36.70333,     -12.65078
401.304,36.96000,     -12.69238
403.871,37.21667,     -12.73388
406.431,37.47333,     -12.77469
408.996,37.73000,     -12.81348
411.563,37.98667,     -12.85227
414.129,38.24333,     -12.89166
416.696,38.50000,     -12.92894
419.26,38.75667,     -12.96693
421.826,39.01333,     -13.00321
424.397,39.27000,     -13.03928
426.959,39.52667,     -13.07416
429.523,39.78333,     -13.10884
432.09,40.04000,     -13.14270
434.652,40.29667,     -13.17527
437.219,40.55333,     -13.20732
439.78,40.81000,     -13.23889
442.348,41.06667,     -13.26944
444.915,41.32333,     -13.29959
447.477,41.58000,     -13.32805
450.043,41.83667,     -13.35639
452.605,42.09333,     -13.38344
455.169,42.35000,     -13.40948
457.735,42.60667,     -13.43621
460.297,42.86333,     -13.46145
462.86,43.12000,     -13.48548
465.43,43.37667,     -13.50961
467.996,43.63333,     -13.53164
470.562,43.89000,     -13.55396
473.121,44.14667,     -13.57508
475.688,44.40333,     -13.59599
478.248,44.66000,     -13.61611
480.809,44.91667,     -13.63502
483.378,45.17333,     -13.65363
485.941,45.43000,     -13.67163
488.502,45.68667,     -13.68924
491.076,45.94333,     -13.70613
493.637,46.20000,     -13.72313
496.2,46.45667,     -13.73862
498.764,46.71333,     -13.75401
501.328,46.97000,     -13.76920
503.889,47.22667,     -13.78319
506.454,47.48333,     -13.79767
509.02,47.74000,     -13.81145
511.585,47.99667,     -13.82453
514.148,48.25333,     -13.83731
516.711,48.51000,     -13.85008
519.276,48.76667,     -13.86205
521.848,49.02333,     -13.87402
524.403,49.28000,     -13.88620
526.972,49.53667,     -13.89736
529.536,49.79333,     -13.90782
532.097,50.05000,     -13.91968
534.665,50.30667,     -13.92874
537.23,50.56333,     -13.93930
539.793,50.82000,     -13.95005
542.355,51.07667,     -13.95960
544.928,51.33333,     -13.96984
547.482,51.59000,     -13.97959
550.055,51.84667,     -13.98872
552.619,52.10333,     -13.99816
555.188,52.36000,     -14.00730
557.746,52.61667,     -14.01613
560.307,52.87333,     -14.02376
562.882,53.13000,     -14.03048
565.44,53.38667,     -14.04030
568.013,53.64333,     -14.04801
570.583,53.90000,     -14.05563
573.144,54.15667,     -14.06314
575.71,54.41333,     -14.07164
578.271,54.67000,     -14.07804
580.841,54.92667,     -14.08483
583.407,55.18333,     -14.09433
585.981,55.44000,     -14.10001
588.542,55.69667,     -14.10661
591.097,55.95333,     -14.11379
593.674,56.21000,     -14.12225
596.233,56.46667,     -14.12763
598.796,56.72333,     -14.13390
601.367,56.98000,     -14.14125
603.929,57.23667,     -14.14821
606.497,57.49333,     -14.15366
609.067,57.75000,     -14.16011
611.628,58.00667,     -14.16666
614.198,58.26333,     -14.17310
616.762,58.52000,     -14.17893
619.33,58.77667,     -14.18486
621.893,59.03333,     -14.19110
624.461,59.29000,     -14.19641
627.034,59.54667,     -14.20193
629.594,59.80333,     -14.20725
632.167,60.06000,     -14.21196
634.731,60.31667,     -14.21728
637.296,60.57333,     -14.22258
639.862,60.83000,     -14.22748
642.427,61.08667,     -14.23218
644.989,61.34333,     -14.23748
647.553,61.60000,     -14.24237
650.116,61.85667,     -14.24736
652.691,62.11333,     -14.25215
655.253,62.37000,     -14.25723
657.82,62.62667,     -14.26151
660.378,62.88333,     -14.26699
662.954,63.14000,     -14.27146
665.519,63.39667,     -14.27584
668.083,63.65333,     -14.27991
670.642,63.91000,     -14.28468
673.21,64.16667,     -14.28904
675.778,64.42333,     -14.29291
678.345,64.68000,     -14.29707
680.904,64.93667,     -14.30123
683.473,65.19333,     -14.30588
686.042,65.45000,     -14.31024
688.608,65.70667,     -14.31459
691.175,65.96333,     -14.31874
693.747,66.22000,     -14.32188
696.313,66.47667,     -14.32583
698.879,66.73333,     -14.33038
701.444,66.99000,     -14.33392
704.01,67.24667,     -14.33756
706.575,67.50333,     -14.34211
709.148,67.76000,     -14.34535
711.707,68.01667,     -14.35009
714.274,68.27333,     -14.35413
716.843,68.53000,     -14.35757
719.411,68.78667,     -14.36091
721.978,69.04333,     -14.36415
724.543,69.30000,     -14.36849
727.109,69.55667,     -14.37212
729.674,69.81333,     -14.37656
732.24,70.07000,     -14.37959
734.806,70.32667,     -14.38292
737.367,70.58333,     -14.38625
739.93,70.84000,     -14.38997
742.504,71.09667,     -14.39289
745.062,71.35333,     -14.39671
747.634,71.61000,     -14.39992
750.194,71.86667,     -14.40373
752.767,72.12333,     -14.40783
755.319,72.38000,     -14.41145
757.894,72.63667,     -14.41494
760.453,72.89333,     -14.41784
763.022,73.15000,     -14.42083
765.59,73.40667,     -14.42451
768.155,73.66333,     -14.42810
770.719,73.92000,     -14.43157
773.282,74.17667,     -14.43494
775.844,74.43333,     -14.43871
778.411,74.69000,     -14.44167
780.974,74.94667,     -14.44443
783.542,75.20333,     -14.44757
786.114,75.46000,     -14.45111
788.693,75.71667,     -14.45364
791.256,75.97333,     -14.45728
793.83,76.23000,     -14.46019
796.389,76.48667,     -14.46321
798.945,76.74333,     -14.46583
799.49,76.79833,     -14.46654

File: AA_TGA.csv
#EXPORTTYPE:                 ,DATA SINGLE
#FILE:                       ,AA.ngb-st9
#FORMAT:                     ,NETZSCH5
#FTYPE:                      ,ANSI
#IDENTITY:                   ,Saras
#DECIMAL:                    ,POINT
#SEPARATOR:                  ,COMMA
#MTYPE:                      ,TG
#INSTRUMENT:                 ,NETZSCH TG 209F1 Libra
#PROJECT:                    ,IL
#DATE/TIME:                  ,10/03/2017 4:03:09 PM (UTC+11)
#CORR. FILE:                 ,
#TEMPCAL:                    ,TCALZERO.TCX
#LABORATORY:                 ,Capture Lab
#OPERATOR:                   ,NJN
#REMARK:                     ,Training run
#SAMPLE:                     ,AA
#SAMPLE MASS /mg:            ,10.4106
#MATERIAL:                   ,KHCO3
#TYPE OF CRUCIBLE:           ,Al2O3
#SAMPLE CRUCIBLE MASS /mg:   ,311.8469
#REFERENCE CRUCIBLE MASS /mg:,
#M.RANGE /mg:                ,2000
#CORR. CODE:                 ,090
#RANGE:                      ,32°C/10.0(K/min)/800°C
#SEGMENT:                    ,S1/1
#SEG. 1:                     ,32°C/10.0(K/min)/800°C

##Temp./°C,Time/min,Mass loss/mg
 31.34300, 0.00000,-2.474829e-003
 32.51000, 0.25667,-5.586140e-003
 34.85600, 0.51333,-1.237412e-002
 37.87800, 0.77000,-2.245914e-002
 41.15900, 1.02667,-3.936571e-002
 44.34300, 1.28333,-5.869846e-002
 47.27700, 1.54000,-8.093437e-002
 49.95900, 1.79667,      -0.10599
 52.47400, 2.05333,      -0.13278
 54.93100, 2.31000,      -0.16119
 57.39700, 2.56667,      -0.19031
 59.91500, 2.82333,      -0.22017
 62.47700, 3.08000,      -0.25008
 65.07100, 3.33667,      -0.28017
 67.67600, 3.59333,      -0.30883
 70.26600, 3.85000,      -0.33699
 72.83400, 4.10667,      -0.36239
 75.40200, 4.36333,      -0.38701
 77.97200, 4.62000,      -0.40913
 80.53600, 4.87667,      -0.43002
 83.10400, 5.13333,      -0.44833
 85.66500, 5.39000,      -0.46459
 88.24100, 5.64667,      -0.47891
 90.81400, 5.90333,      -0.49126
 93.39000, 6.16000,      -0.50142
 95.95800, 6.41667,      -0.51078
 98.52300, 6.67333,      -0.51722
101.09, 6.93000,      -0.52364
103.657, 7.18667,      -0.52889
106.215, 7.44333,      -0.53369
108.781, 7.70000,      -0.53740
111.343, 7.95667,      -0.54066
113.908, 8.21333,      -0.54320
116.476, 8.47000,      -0.54550
119.045, 8.72667,      -0.54718
121.609, 8.98333,      -0.54884
124.176, 9.24000,      -0.55057
126.745, 9.49667,      -0.55198
129.309, 9.75333,      -0.55336
131.876,10.01000,      -0.55494
134.442,10.26667,      -0.55719
137.012,10.52333,      -0.55873
139.584,10.78000,      -0.55985
142.152,11.03667,      -0.56215
144.72,11.29333,      -0.56474
147.288,11.55000,      -0.56693
149.85,11.80667,      -0.57009
152.418,12.06333,      -0.57235
154.986,12.32000,      -0.57631
157.551,12.57667,      -0.58045
160.119,12.83333,      -0.58480
162.685,13.09000,      -0.59193
165.253,13.34667,      -0.59657
167.816,13.60333,      -0.60290
170.384,13.86000,      -0.61223
172.947,14.11667,      -0.61946
175.515,14.37333,      -0.63110
178.084,14.63000,      -0.64205
180.654,14.88667,      -0.65509
183.219,15.14333,      -0.66994
185.789,15.40000,      -0.68710
188.35,15.65667,      -0.70776
190.917,15.91333,      -0.73194
193.491,16.17000,      -0.76003
196.06,16.42667,      -0.79083
198.625,16.68333,      -0.82504
201.19,16.94000,      -0.86287
203.753,17.19667,      -0.90241
206.321,17.45333,      -0.94464
208.893,17.71000,      -0.98589
211.457,17.96667,      -1.02723
214.024,18.22333,      -1.06747
216.59,18.48000,      -1.10652
219.155,18.73667,      -1.14407
221.723,18.99333,      -1.18203
224.29,19.25000,      -1.21899
226.859,19.50667,      -1.25864
229.425,19.76333,      -1.29980
231.995,20.02000,      -1.34416
234.564,20.27667,      -1.39292
237.124,20.53333,      -1.44678
239.685,20.79000,      -1.50654
242.253,21.04667,      -1.58431
244.816,21.30333,      -1.65407
247.383,21.56000,      -1.74083
249.949,21.81667,      -1.82500
252.515,22.07333,      -1.91936
255.078,22.33000,      -2.01652
257.646,22.58667,      -2.11898
260.212,22.84333,      -2.22493
262.776,23.10000,      -2.33129
265.351,23.35667,      -2.44215
267.915,23.61333,      -2.55200
270.475,23.87000,      -2.66415
273.042,24.12667,      -2.77419
275.611,24.38333,      -2.88364
278.171,24.64000,      -2.99248
280.735,24.89667,      -3.09842
283.301,25.15333,      -3.20415
285.868,25.41000,      -3.31038
288.427,25.66667,      -3.41341
290.991,25.92333,      -3.51653
293.569,26.18000,      -3.62185
296.137,26.43667,      -3.72626
298.696,26.69333,      -3.83467
301.261,26.95000,      -3.94777
303.831,27.20667,      -4.06597
306.395,27.46333,      -4.19137
308.958,27.72000,      -4.32578
311.52,27.97667,      -4.47508
314.092,28.23333,      -4.63738
316.662,28.49000,      -4.81548
319.225,28.74667,      -5.00919
321.788,29.00333,      -5.21739
324.353,29.26000,      -5.42859
326.92,29.51667,      -5.63589
329.493,29.77333,      -5.82889
332.058,30.03000,      -6.00208
334.62,30.28667,      -6.14478
337.189,30.54333,      -6.26047
339.75,30.80000,      -6.34527
342.314,31.05667,      -6.41266
344.875,31.31333,      -6.46715
347.439,31.57000,      -6.51334
350.004,31.82667,      -6.55372
352.568,32.08333,      -6.58990
355.135,32.34000,      -6.62288
357.705,32.59667,      -6.65266
360.268,32.85333,      -6.68113
362.834,33.11000,      -6.70880
365.397,33.36667,      -6.73417
367.963,33.62333,      -6.75993
370.528,33.88000,      -6.78450
373.1,34.13667,      -6.80905
375.663,34.39333,      -6.83270
378.224,34.65000,      -6.85535
380.789,34.90667,      -6.87740
383.349,35.16333,      -6.89914
385.913,35.42000,      -6.92097
388.479,35.67667,      -6.94200
391.046,35.93333,      -6.96343
393.612,36.19000,      -6.98315
396.177,36.44667,      -7.00447
398.739,36.70333,      -7.02458
401.304,36.96000,      -7.04368
403.866,37.21667,      -7.06269
406.428,37.47333,      -7.08218
408.999,37.73000,      -7.10168
411.569,37.98667,      -7.12077
414.133,38.24333,      -7.13936
416.702,38.50000,      -7.15654
419.264,38.75667,      -7.17483
421.824,39.01333,      -7.19221
424.399,39.27000,      -7.21068
426.953,39.52667,      -7.22786
429.523,39.78333,      -7.24383
432.086,40.04000,      -7.26070
434.644,40.29667,      -7.27707
437.216,40.55333,      -7.29212
439.773,40.81000,      -7.30809
442.345,41.06667,      -7.32364
444.909,41.32333,      -7.33829
447.47,41.58000,      -7.35345
450.035,41.83667,      -7.36739
452.604,42.09333,      -7.38133
455.171,42.35000,      -7.39458
457.736,42.60667,      -7.40891
460.297,42.86333,      -7.42155
462.857,43.12000,      -7.43369
465.423,43.37667,      -7.44531
467.988,43.63333,      -7.45824
470.549,43.89000,      -7.46936
473.113,44.14667,      -7.48028
475.681,44.40333,      -7.49090
478.242,44.66000,      -7.50192
480.808,44.91667,      -7.51242
483.374,45.17333,      -7.52313
485.941,45.43000,      -7.53293
488.506,45.68667,      -7.54124
491.067,45.94333,      -7.55194
493.632,46.20000,      -7.56163
496.194,46.45667,      -7.56882
498.76,46.71333,      -7.57871
501.318,46.97000,      -7.58610
503.887,47.22667,      -7.59608
506.456,47.48333,      -7.60367
509.016,47.74000,      -7.61065
511.583,47.99667,      -7.61733
514.145,48.25333,      -7.62761
516.711,48.51000,      -7.63318
519.275,48.76667,      -7.64045
521.84,49.02333,      -7.64803
524.402,49.28000,      -7.65489
526.966,49.53667,      -7.66236
529.536,49.79333,      -7.66762
532.101,50.05000,      -7.67348
534.658,50.30667,      -7.68054
537.222,50.56333,      -7.68680
539.787,50.82000,      -7.69235
542.349,51.07667,      -7.69820
544.915,51.33333,      -7.70415
547.478,51.59000,      -7.71009
550.044,51.84667,      -7.71553
552.61,52.10333,      -7.72157
555.175,52.36000,      -7.72700
557.745,52.61667,      -7.73233
560.31,52.87333,      -7.73746
562.878,53.13000,      -7.74178
565.445,53.38667,      -7.74700
568.01,53.64333,      -7.75252
570.578,53.90000,      -7.75813
573.146,54.15667,      -7.76253
575.715,54.41333,      -7.76634
578.281,54.67000,      -7.77154
580.851,54.92667,      -7.77713
583.414,55.18333,      -7.78183
585.98,55.44000,      -7.78631
588.545,55.69667,      -7.79090
591.118,55.95333,      -7.79477
593.679,56.21000,      -7.80006
596.247,56.46667,      -7.80432
598.819,56.72333,      -7.80929
601.385,56.98000,      -7.81345
603.952,57.23667,      -7.81781
606.515,57.49333,      -7.82176
609.079,57.75000,      -7.82681
611.651,58.00667,      -7.83045
614.217,58.26333,      -7.83369
616.779,58.52000,      -7.83803
619.343,58.77667,      -7.84316
621.914,59.03333,      -7.84648
624.48,59.29000,      -7.85071
627.048,59.54667,      -7.85513
629.609,59.80333,      -7.85785
632.178,60.06000,      -7.86206
634.745,60.31667,      -7.86447
637.308,60.57333,      -7.86858
639.873,60.83000,      -7.87158
642.441,61.08667,      -7.87548
645.002,61.34333,      -7.87808
647.565,61.60000,      -7.88137
650.132,61.85667,      -7.88486
652.695,62.11333,      -7.88845
655.26,62.37000,      -7.89113
657.826,62.62667,      -7.89391
660.395,62.88333,      -7.89819
662.962,63.14000,      -7.90096
665.523,63.39667,      -7.90294
668.087,63.65333,      -7.90521
670.647,63.91000,      -7.90838
673.217,64.16667,      -7.91214
675.787,64.42333,      -7.91460
678.349,64.68000,      -7.91677
680.909,64.93667,      -7.92043
683.483,65.19333,      -7.92288
686.042,65.45000,      -7.92544
688.604,65.70667,      -7.92769
691.165,65.96333,      -7.92934
693.742,66.22000,      -7.93318
696.31,66.47667,      -7.93553
698.881,66.73333,      -7.93657
701.441,66.99000,      -7.94163
704.011,67.24667,      -7.94316
706.576,67.50333,      -7.94741
709.143,67.76000,      -7.94905
711.712,68.01667,      -7.95189
714.287,68.27333,      -7.95323
716.835,68.53000,      -7.95708
719.404,68.78667,      -7.95901
721.972,69.04333,      -7.96135
724.533,69.30000,      -7.96310
727.112,69.55667,      -7.96642
729.673,69.81333,      -7.96866
732.24,70.07000,      -7.96989
734.799,70.32667,      -7.97202
737.369,70.58333,      -7.97514
739.938,70.84000,      -7.97746
742.508,71.09667,      -7.97928
745.073,71.35333,      -7.98150
747.642,71.61000,      -7.98411
750.202,71.86667,      -7.98733
752.775,72.12333,      -7.98923
755.332,72.38000,      -7.99224
757.89,72.63667,      -7.99385
760.465,72.89333,      -7.99553
763.028,73.15000,      -7.99842
765.584,73.40667,      -8.00122
768.159,73.66333,      -8.00509
770.722,73.92000,      -8.00457
773.285,74.17667,      -8.00814
775.854,74.43333,      -8.01081
778.42,74.69000,      -8.01307
780.983,74.94667,      -8.01562
783.547,75.20333,      -8.01767
786.126,75.46000,      -8.01890
788.693,75.71667,      -8.02084
791.258,75.97333,      -8.02267
793.834,76.23000,      -8.02589
796.406,76.48667,      -8.02781
798.955,76.74333,      -8.03033
799.502,76.79833,      -8.03063