Folder: biomass.carbon/data-raw/TGA (part 3)

File: C_TGA.csv
#EXPORTTYPE:                 ,DATA SINGLE
#FILE:                       ,C.ngb-st9
#FORMAT:                     ,NETZSCH5
#FTYPE:                      ,ANSI
#IDENTITY:                   ,Saras
#DECIMAL:                    ,POINT
#SEPARATOR:                  ,COMMA
#MTYPE:                      ,TG
#INSTRUMENT:                 ,NETZSCH TG 209F1 Libra
#PROJECT:                    ,IL
#DATE/TIME:                  ,10/03/2017 1:22:58 PM (UTC+11)
#CORR. FILE:                 ,
#TEMPCAL:                    ,TCALZERO.TCX
#LABORATORY:                 ,Capture Lab
#OPERATOR:                   ,NJN
#REMARK:                     ,Training run
#SAMPLE:                     ,C
#SAMPLE MASS /mg:            ,12.0878
#MATERIAL:                   ,KHCO3
#TYPE OF CRUCIBLE:           ,Al2O3
#SAMPLE CRUCIBLE MASS /mg:   ,310.9768
#REFERENCE CRUCIBLE MASS /mg:,
#M.RANGE /mg:                ,2000
#CORR. CODE:                 ,090
#RANGE:                      ,32°C/10.0(K/min)/800°C
#SEGMENT:                    ,S1/1
#SEG. 1:                     ,32°C/10.0(K/min)/800°C

##Temp./°C,Time/min,Mass loss/mg
 31.32300, 0.00000,-3.155927e-003
 32.50100, 0.25667,-6.239517e-003
 34.84300, 0.51333,-1.395795e-002
 37.87300, 0.77000,-2.718862e-002
 41.15500, 1.02667,-4.527027e-002
 44.34800, 1.28333,-6.593383e-002
 47.28400, 1.54000,-9.133387e-002
 49.96000, 1.79667,      -0.12035
 52.47700, 2.05333,      -0.15096
 54.93800, 2.31000,      -0.18399
 57.40400, 2.56667,      -0.21853
 59.91500, 2.82333,      -0.25294
 62.47300, 3.08000,      -0.28926
 65.06600, 3.33667,      -0.32548
 67.66600, 3.59333,      -0.36069
 70.26200, 3.85000,      -0.39574
 72.84600, 4.10667,      -0.42876
 75.41500, 4.36333,      -0.45993
 77.98500, 4.62000,      -0.48843
 80.55000, 4.87667,      -0.51524
 83.11500, 5.13333,      -0.53901
 85.68100, 5.39000,      -0.56101
 88.24700, 5.64667,      -0.57958
 90.82700, 5.90333,      -0.59649
 93.39900, 6.16000,      -0.61063
 95.96500, 6.41667,      -0.62387
 98.53800, 6.67333,      -0.63284
101.098, 6.93000,      -0.64273
103.666, 7.18667,      -0.64909
106.229, 7.44333,      -0.65561
108.793, 7.70000,      -0.66049
111.353, 7.95667,      -0.66525
113.914, 8.21333,      -0.66879
116.478, 8.47000,      -0.67240
119.048, 8.72667,      -0.67569
121.616, 8.98333,      -0.67844
124.183, 9.24000,      -0.68098
126.752, 9.49667,      -0.68278
129.319, 9.75333,      -0.68528
131.884,10.01000,      -0.68754
134.453,10.26667,      -0.68959
137.019,10.52333,      -0.69152
139.583,10.78000,      -0.69434
142.15,11.03667,      -0.69745
144.723,11.29333,      -0.70075
147.292,11.55000,      -0.70402
149.854,11.80667,      -0.70859
152.423,12.06333,      -0.71335
154.992,12.32000,      -0.71890
157.559,12.57667,      -0.72455
160.122,12.83333,      -0.73088
162.69,13.09000,      -0.73733
165.258,13.34667,      -0.74697
167.822,13.60333,      -0.75570
170.389,13.86000,      -0.76493
172.955,14.11667,      -0.77506
175.521,14.37333,      -0.78700
178.093,14.63000,      -0.79965
180.66,14.88667,      -0.81389
183.225,15.14333,      -0.83064
185.791,15.40000,      -0.84849
188.358,15.65667,      -0.86727
190.926,15.91333,      -0.88794
193.496,16.17000,      -0.91023
196.064,16.42667,      -0.93523
198.636,16.68333,      -0.95995
201.198,16.94000,      -0.98517
203.765,17.19667,      -1.01111
206.331,17.45333,      -1.03734
208.9,17.71000,      -1.06369
211.464,17.96667,      -1.09133
214.029,18.22333,      -1.12097
216.595,18.48000,      -1.15092
219.164,18.73667,      -1.18468
221.727,18.99333,      -1.22023
224.294,19.25000,      -1.25958
226.862,19.50667,      -1.30194
229.43,19.76333,      -1.34950
231.995,20.02000,      -1.40346
234.56,20.27667,      -1.46242
237.126,20.53333,      -1.53298
239.698,20.79000,      -1.61555
242.264,21.04667,      -1.70481
244.824,21.30333,      -1.79747
247.394,21.56000,      -1.89724
249.961,21.81667,      -2.00619
252.523,22.07333,      -2.12095
255.087,22.33000,      -2.24172
257.655,22.58667,      -2.36778
260.22,22.84333,      -2.49653
262.787,23.10000,      -2.62609
265.353,23.35667,      -2.75754
267.914,23.61333,      -2.88960
270.476,23.87000,      -3.01775
273.046,24.12667,      -3.14339
275.608,24.38333,      -3.26664
278.175,24.64000,      -3.38938
280.74,24.89667,      -3.50832
283.31,25.15333,      -3.62505
285.872,25.41000,      -3.74228
288.438,25.66667,      -3.85681
290.999,25.92333,      -3.97423
293.572,26.18000,      -4.09295
296.144,26.43667,      -4.21706
298.713,26.69333,      -4.34527
301.269,26.95000,      -4.48097
303.834,27.20667,      -4.62877
306.406,27.46333,      -4.78667
308.977,27.72000,      -4.96187
311.539,27.97667,      -5.15428
314.111,28.23333,      -5.37048
316.672,28.49000,      -5.60358
319.238,28.74667,      -5.85029
321.809,29.00333,      -6.10699
324.374,29.26000,      -6.35479
326.936,29.51667,      -6.58209
329.504,29.77333,      -6.77458
332.064,30.03000,      -6.93248
334.628,30.28667,      -7.05198
337.187,30.54333,      -7.14618
339.752,30.80000,      -7.21857
342.319,31.05667,      -7.27766
344.886,31.31333,      -7.33545
347.456,31.57000,      -7.38853
350.022,31.82667,      -7.43812
352.585,32.08333,      -7.48320
355.154,32.34000,      -7.52438
357.72,32.59667,      -7.56266
360.281,32.85333,      -7.60033
362.848,33.11000,      -7.63360
365.415,33.36667,      -7.66487
367.977,33.62333,      -7.69503
370.54,33.88000,      -7.72489
373.106,34.13667,      -7.75265
375.672,34.39333,      -7.77900
378.238,34.65000,      -7.80555
380.804,34.90667,      -7.83249
383.369,35.16333,      -7.85744
385.932,35.42000,      -7.88277
388.497,35.67667,      -7.90690
391.062,35.93333,      -7.93123
393.619,36.19000,      -7.95615
396.184,36.44667,      -7.97997
398.748,36.70333,      -8.00398
401.32,36.96000,      -8.02658
403.881,37.21667,      -8.04868
406.45,37.47333,      -8.07068
409.012,37.73000,      -8.09338
411.575,37.98667,      -8.11557
414.141,38.24333,      -8.13716
416.708,38.50000,      -8.15915
419.272,38.75667,      -8.17983
421.838,39.01333,      -8.20001
424.404,39.27000,      -8.22128
426.967,39.52667,      -8.24136
429.535,39.78333,      -8.26113
432.093,40.04000,      -8.28080
434.661,40.29667,      -8.30016
437.223,40.55333,      -8.31913
439.79,40.81000,      -8.33798
442.353,41.06667,      -8.35684
444.92,41.32333,      -8.37459
447.482,41.58000,      -8.39185
450.048,41.83667,      -8.40959
452.612,42.09333,      -8.42563
455.18,42.35000,      -8.44218
457.755,42.60667,      -8.45680
460.309,42.86333,      -8.47286
462.865,43.12000,      -8.48778
465.432,43.37667,      -8.50221
467.998,43.63333,      -8.51583
470.565,43.89000,      -8.52976
473.127,44.14667,      -8.54368
475.697,44.40333,      -8.55549
478.261,44.66000,      -8.56781
480.819,44.91667,      -8.57942
483.383,45.17333,      -8.59223
485.955,45.43000,      -8.60373
488.519,45.68667,      -8.61553
491.08,45.94333,      -8.62634
493.647,46.20000,      -8.63443
496.21,46.45667,      -8.64592
498.773,46.71333,      -8.65541
501.336,46.97000,      -8.66490
503.903,47.22667,      -8.67388
506.47,47.48333,      -8.68246
509.025,47.74000,      -8.69185
511.59,47.99667,      -8.70113
514.159,48.25333,      -8.70880
516.722,48.51000,      -8.71668
519.294,48.76667,      -8.72665
521.857,49.02333,      -8.73332
524.423,49.28000,      -8.73859
526.98,49.53667,      -8.74956
529.547,49.79333,      -8.75402
532.113,50.05000,      -8.76108
534.677,50.30667,      -8.76944
537.251,50.56333,      -8.77449
539.812,50.82000,      -8.77925
542.377,51.07667,      -8.78539
544.942,51.33333,      -8.79374
547.494,51.59000,      -8.80009
550.062,51.84667,      -8.80873
552.628,52.10333,      -8.81296
555.191,52.36000,      -8.81910
557.759,52.61667,      -8.82313
560.33,52.87333,      -8.82935
562.891,53.13000,      -8.83468
565.461,53.38667,      -8.83989
568.024,53.64333,      -8.84481
570.588,53.90000,      -8.85072
573.156,54.15667,      -8.85613
575.725,54.41333,      -8.86024
578.289,54.67000,      -8.86544
580.857,54.92667,      -8.86933
583.418,55.18333,      -8.87323
585.994,55.44000,      -8.87991
588.557,55.69667,      -8.88450
591.127,55.95333,      -8.88678
593.694,56.21000,      -8.89075
596.269,56.46667,      -8.89351
598.829,56.72333,      -8.89849
601.39,56.98000,      -8.90325
603.957,57.23667,      -8.90660
606.527,57.49333,      -8.91095
609.103,57.75000,      -8.91420
611.665,58.00667,      -8.91995
614.229,58.26333,      -8.92349
616.802,58.52000,      -8.92672
619.367,58.77667,      -8.93115
621.931,59.03333,      -8.93438
624.498,59.29000,      -8.93711
627.067,59.54667,      -8.94222
629.634,59.80333,      -8.94434
632.2,60.06000,      -8.94825
634.764,60.31667,      -8.95286
637.324,60.57333,      -8.95577
639.889,60.83000,      -8.95877
642.448,61.08667,      -8.96328
645.015,61.34333,      -8.96627
647.581,61.60000,      -8.96916
650.149,61.85667,      -8.97185
652.719,62.11333,      -8.97514
655.285,62.37000,      -8.97842
657.836,62.62667,      -8.98221
660.406,62.88333,      -8.98458
662.975,63.14000,      -8.98756
665.54,63.39667,      -8.98983
668.102,63.65333,      -8.99230
670.665,63.91000,      -8.99507
673.229,64.16667,      -8.99874
675.797,64.42333,      -9.00200
678.362,64.68000,      -9.00636
680.928,64.93667,      -9.00942
683.487,65.19333,      -9.01248
686.073,65.45000,      -9.01502
688.641,65.70667,      -9.01688
691.202,65.96333,      -9.01863
693.766,66.22000,      -9.02218
696.334,66.47667,      -9.02402
698.895,66.73333,      -9.02777
701.469,66.99000,      -9.02871
704.029,67.24667,      -9.03166
706.594,67.50333,      -9.03540
709.163,67.76000,      -9.03844
711.729,68.01667,      -9.04069
714.294,68.27333,      -9.04273
716.862,68.53000,      -9.04657
719.432,68.78667,      -9.04891
721.998,69.04333,      -9.05155
724.563,69.30000,      -9.05458
727.131,69.55667,      -9.05742
729.692,69.81333,      -9.05935
732.259,70.07000,      -9.06238
734.821,70.32667,      -9.06581
737.386,70.58333,      -9.06924
739.946,70.84000,      -9.07227
742.515,71.09667,      -9.07398
745.091,71.35333,      -9.07770
747.656,71.61000,      -9.08091
750.223,71.86667,      -9.08402
752.785,72.12333,      -9.08653
755.35,72.38000,      -9.08744
757.911,72.63667,      -9.08924
760.475,72.89333,      -9.09413
763.039,73.15000,      -9.09712
765.603,73.40667,      -9.10061
768.167,73.66333,      -9.10469
770.737,73.92000,      -9.10586
773.306,74.17667,      -9.10864
775.869,74.43333,      -9.11140
778.433,74.69000,      -9.11456
780.999,74.94667,      -9.11822
783.569,75.20333,      -9.11986
786.135,75.46000,      -9.12401
788.703,75.71667,      -9.12754
791.274,75.97333,      -9.13037
793.843,76.23000,      -9.13329
796.413,76.48667,      -9.13730
798.977,76.74333,      -9.14051
799.523,76.79833,      -9.14132

File: CC_TGA.csv
#EXPORTTYPE:                 ,DATA SINGLE
#FILE:                       ,CC.ngb-st9
#FORMAT:                     ,NETZSCH5
#FTYPE:                      ,ANSI
#IDENTITY:                   ,Saras
#DECIMAL:                    ,POINT
#SEPARATOR:                  ,COMMA
#MTYPE:                      ,TG
#INSTRUMENT:                 ,NETZSCH TG 209F1 Libra
#PROJECT:                    ,IL
#DATE/TIME:                  ,13/03/2017 12:15:15 PM (UTC+11)
#CORR. FILE:                 ,
#TEMPCAL:                    ,TCALZERO.TCX
#LABORATORY:                 ,Capture Lab
#OPERATOR:                   ,NJN
#REMARK:                     ,Training run
#SAMPLE:                     ,CC
#SAMPLE MASS /mg:            ,13.7182
#MATERIAL:                   ,KHCO3
#TYPE OF CRUCIBLE:           ,Al2O3
#SAMPLE CRUCIBLE MASS /mg:   ,311.7463
#REFERENCE CRUCIBLE MASS /mg:,
#M.RANGE /mg:                ,2000
#CORR. CODE:                 ,090
#RANGE:                      ,32°C/10.0(K/min)/800°C
#SEGMENT:                    ,S1/1
#SEG. 1:                     ,32°C/10.0(K/min)/800°C

##Temp./°C,Time/min,Mass loss/mg
 31.28800, 0.00000,-2.438551e-003
 32.46500, 0.25667,-1.093873e-002
 34.82000, 0.51333,-2.710142e-002
 37.85900, 0.77000,-4.740622e-002
 41.15200, 1.02667,-7.390711e-002
 44.34800, 1.28333,      -0.10588
 47.29500, 1.54000,      -0.14316
 49.98100, 1.79667,      -0.18688
 52.50300, 2.05333,      -0.23249
 54.95500, 2.31000,      -0.28137
 57.42400, 2.56667,      -0.33244
 59.93500, 2.82333,      -0.38525
 62.49400, 3.08000,      -0.43816
 65.08600, 3.33667,      -0.49078
 67.68600, 3.59333,      -0.54298
 70.27800, 3.85000,      -0.59202
 72.86700, 4.10667,      -0.63825
 75.43800, 4.36333,      -0.68193
 78.01000, 4.62000,      -0.72264
 80.57500, 4.87667,      -0.75950
 83.13700, 5.13333,      -0.79300
 85.69800, 5.39000,      -0.82439
 88.26900, 5.64667,      -0.85249
 90.83800, 5.90333,      -0.87856
 93.41000, 6.16000,      -0.90181
 95.98100, 6.41667,      -0.92387
 98.55000, 6.67333,      -0.94294
101.114, 6.93000,      -0.96134
103.68, 7.18667,      -0.97799
106.249, 7.44333,      -0.99241
108.812, 7.70000,      -1.00630
111.371, 7.95667,      -1.01856
113.936, 8.21333,      -1.02979
116.503, 8.47000,      -1.04021
119.07, 8.72667,      -1.05119
121.637, 8.98333,      -1.05764
124.204, 9.24000,      -1.06766
126.765, 9.49667,      -1.07828
129.333, 9.75333,      -1.08746
131.896,10.01000,      -1.09903
134.466,10.26667,      -1.11079
137.037,10.52333,      -1.12513
139.602,10.78000,      -1.14174
142.173,11.03667,      -1.16055
144.738,11.29333,      -1.18214
147.307,11.55000,      -1.20712
149.873,11.80667,      -1.23419
152.44,12.06333,      -1.26365
155.008,12.32000,      -1.29400
157.575,12.57667,      -1.32526
160.142,12.83333,      -1.35730
162.711,13.09000,      -1.38823
165.279,13.34667,      -1.42006
167.845,13.60333,      -1.45229
170.408,13.86000,      -1.48412
172.972,14.11667,      -1.51646
175.537,14.37333,      -1.54900
178.102,14.63000,      -1.58364
180.67,14.88667,      -1.61678
183.241,15.14333,      -1.65154
185.813,15.40000,      -1.68579
188.382,15.65667,      -1.72136
190.948,15.91333,      -1.75683
193.512,16.17000,      -1.79273
196.082,16.42667,      -1.82943
198.654,16.68333,      -1.86654
201.213,16.94000,      -1.90267
203.777,17.19667,      -1.93910
206.342,17.45333,      -1.97824
208.907,17.71000,      -2.01648
211.475,17.96667,      -2.05663
214.043,18.22333,      -2.09897
216.612,18.48000,      -2.14542
219.176,18.73667,      -2.19487
221.743,18.99333,      -2.24793
224.312,19.25000,      -2.30608
226.88,19.50667,      -2.36884
229.451,19.76333,      -2.44110
232.017,20.02000,      -2.52216
234.58,20.27667,      -2.59322
237.142,20.53333,      -2.68548
239.711,20.79000,      -2.77344
242.278,21.04667,      -2.87001
244.848,21.30333,      -2.96877
247.41,21.56000,      -3.07473
249.976,21.81667,      -3.18329
252.538,22.07333,      -3.29255
255.099,22.33000,      -3.40101
257.661,22.58667,      -3.50177
260.225,22.84333,      -3.59883
262.798,23.10000,      -3.69139
265.361,23.35667,      -3.77964
267.927,23.61333,      -3.86499
270.496,23.87000,      -3.94924
273.056,24.12667,      -4.02889
275.621,24.38333,      -4.11174
278.191,24.64000,      -4.20598
280.753,24.89667,      -4.29832
283.323,25.15333,      -4.39425
285.888,25.41000,      -4.49468
288.449,25.66667,      -4.60471
291.021,25.92333,      -4.71813
293.607,26.18000,      -4.84114
296.172,26.43667,      -4.97255
298.722,26.69333,      -5.11456
301.285,26.95000,      -5.26537
303.846,27.20667,      -5.42747
306.416,27.46333,      -5.59667
308.983,27.72000,      -5.77407
311.545,27.97667,      -5.94618
314.112,28.23333,      -6.10758
316.676,28.49000,      -6.25318
319.241,28.74667,      -6.37788
321.805,29.00333,      -6.48349
324.368,29.26000,      -6.57669
326.933,29.51667,      -6.65549
329.497,29.77333,      -6.72019
332.066,30.03000,      -6.77738
334.632,30.28667,      -6.83798
337.196,30.54333,      -6.89307
339.763,30.80000,      -6.94497
342.331,31.05667,      -6.99556
344.898,31.31333,      -7.04475
347.464,31.57000,      -7.09183
350.029,31.82667,      -7.13632
352.588,32.08333,      -7.18220
355.159,32.34000,      -7.22848
357.72,32.59667,      -7.27266
360.288,32.85333,      -7.31633
362.851,33.11000,      -7.35970
365.412,33.36667,      -7.40307
367.978,33.62333,      -7.44543
370.549,33.88000,      -7.48639
373.11,34.13667,      -7.52925
375.677,34.39333,      -7.57090
378.243,34.65000,      -7.61355
380.811,34.90667,      -7.65459
383.378,35.16333,      -7.69644
385.943,35.42000,      -7.73657
388.503,35.67667,      -7.77800
391.068,35.93333,      -7.81703
393.625,36.19000,      -7.85735
396.19,36.44667,      -7.89556
398.761,36.70333,      -7.93517
401.324,36.96000,      -7.97228
403.887,37.21667,      -8.00918
406.444,37.47333,      -8.04848
409.021,37.73000,      -8.08587
411.59,37.98667,      -8.12107
414.151,38.24333,      -8.15746
416.718,38.50000,      -8.19254
419.286,38.75667,      -8.22822
421.848,39.01333,      -8.26341
424.409,39.27000,      -8.29748
426.981,39.52667,      -8.33235
429.543,39.78333,      -8.36543
432.11,40.04000,      -8.39979
434.673,40.29667,      -8.43076
437.241,40.55333,      -8.46192
439.801,40.81000,      -8.49399
442.363,41.06667,      -8.52394
444.929,41.32333,      -8.55349
447.495,41.58000,      -8.58194
450.058,41.83667,      -8.61089
452.628,42.09333,      -8.63623
455.192,42.35000,      -8.66157
457.756,42.60667,      -8.68781
460.325,42.86333,      -8.70984
462.887,43.12000,      -8.73458
465.454,43.37667,      -8.75670
468.023,43.63333,      -8.77833
470.586,43.89000,      -8.79775
473.154,44.14667,      -8.81677
475.715,44.40333,      -8.83549
478.277,44.66000,      -8.85501
480.839,44.91667,      -8.87072
483.4,45.17333,      -8.88723
485.964,45.43000,      -8.90383
488.526,45.68667,      -8.91943
491.09,45.94333,      -8.93133
493.658,46.20000,      -8.94523
496.225,46.45667,      -8.95742
498.792,46.71333,      -8.96990
501.355,46.97000,      -8.98220
503.915,47.22667,      -8.99318
506.482,47.48333,      -9.00466
509.047,47.74000,      -9.01614
511.608,47.99667,      -9.02593
514.169,48.25333,      -9.03461
516.736,48.51000,      -9.04457
519.299,48.76667,      -9.05585
521.861,49.02333,      -9.06652
524.427,49.28000,      -9.07169
526.994,49.53667,      -9.07845
529.556,49.79333,      -9.09012
532.12,50.05000,      -9.09608
534.684,50.30667,      -9.10283
537.253,50.56333,      -9.11039
539.818,50.82000,      -9.11934
542.379,51.07667,      -9.12630
544.948,51.33333,      -9.13144
547.513,51.59000,      -9.13668
550.073,51.84667,      -9.14603
552.641,52.10333,      -9.15156
555.207,52.36000,      -9.15689
557.767,52.61667,      -9.16433
560.337,52.87333,      -9.16955
562.899,53.13000,      -9.17488
565.459,53.38667,      -9.18180
568.026,53.64333,      -9.18801
570.589,53.90000,      -9.19123
573.155,54.15667,      -9.20203
575.724,54.41333,      -9.20484
578.29,54.67000,      -9.20934
580.86,54.92667,      -9.21553
583.42,55.18333,      -9.22193
585.993,55.44000,      -9.22631
588.558,55.69667,      -9.23230
591.132,55.95333,      -9.23877
593.701,56.21000,      -9.24165
596.266,56.46667,      -9.24782
598.837,56.72333,      -9.25538
601.403,56.98000,      -9.25975
603.966,57.23667,      -9.26370
606.533,57.49333,      -9.26745
609.099,57.75000,      -9.27391
611.664,58.00667,      -9.27895
614.228,58.26333,      -9.28739
616.796,58.52000,      -9.29092
619.359,58.77667,      -9.29376
621.925,59.03333,      -9.29988
624.488,59.29000,      -9.30521
627.051,59.54667,      -9.30993
629.622,59.80333,      -9.31434
632.191,60.06000,      -9.31985
634.758,60.31667,      -9.32446
637.318,60.57333,      -9.32787
639.881,60.83000,      -9.33248
642.447,61.08667,      -9.33808
645.009,61.34333,      -9.34327
647.573,61.60000,      -9.34697
650.139,61.85667,      -9.35226
652.701,62.11333,      -9.35724
655.268,62.37000,      -9.36443
657.837,62.62667,      -9.36551
660.401,62.88333,      -9.37129
662.961,63.14000,      -9.37787
665.534,63.39667,      -9.38303
668.1,63.65333,      -9.38741
670.66,63.91000,      -9.39248
673.235,64.16667,      -9.39643
675.797,64.42333,      -9.40200
678.365,64.68000,      -9.40746
680.933,64.93667,      -9.41142
683.499,65.19333,      -9.41668
686.059,65.45000,      -9.42013
688.634,65.70667,      -9.42428
691.2,65.96333,      -9.43123
693.759,66.22000,      -9.43528
696.331,66.47667,      -9.43992
698.901,66.73333,      -9.44437
701.464,66.99000,      -9.44812
704.037,67.24667,      -9.45215
706.603,67.50333,      -9.45620
709.166,67.76000,      -9.46124
711.729,68.01667,      -9.46549
714.287,68.27333,      -9.47183
716.856,68.53000,      -9.47667
719.424,68.78667,      -9.48041
721.989,69.04333,      -9.48415
724.562,69.30000,      -9.48488
727.125,69.55667,      -9.49312
729.69,69.81333,      -9.49655
732.255,70.07000,      -9.50128
734.812,70.32667,      -9.50722
737.38,70.58333,      -9.51004
739.952,70.84000,      -9.51396
742.52,71.09667,      -9.51918
745.089,71.35333,      -9.52360
747.658,71.61000,      -9.52761
750.23,71.86667,      -9.53342
752.793,72.12333,      -9.53853
755.357,72.38000,      -9.54323
757.923,72.63667,      -9.54723
760.489,72.89333,      -9.55133
763.054,73.15000,      -9.55812
765.617,73.40667,      -9.56421
768.185,73.66333,      -9.56798
770.752,73.92000,      -9.57266
773.321,74.17667,      -9.57653
775.878,74.43333,      -9.58050
778.444,74.69000,      -9.58856
781.016,74.94667,      -9.59311
783.583,75.20333,      -9.59716
786.142,75.46000,      -9.60461
788.717,75.71667,      -9.61003
791.288,75.97333,      -9.61366
793.853,76.23000,      -9.62269
796.425,76.48667,      -9.62740
798.984,76.74333,      -9.63501
799.518,76.79667,      -9.63592