Folder: biomass.carbon/data-raw/TGA (part 11)

File: M_TGA.csv
#EXPORTTYPE:                 ,DATA SINGLE
#FILE:                       ,M.ngb-st9
#FORMAT:                     ,NETZSCH5
#FTYPE:                      ,ANSI
#IDENTITY:                   ,Saras
#DECIMAL:                    ,POINT
#SEPARATOR:                  ,COMMA
#MTYPE:                      ,TG
#INSTRUMENT:                 ,NETZSCH TG 209F1 Libra
#PROJECT:                    ,IL
#DATE/TIME:                  ,20/03/2017 4:03:47 PM (UTC+11)
#CORR. FILE:                 ,
#TEMPCAL:                    ,TCALZERO.TCX
#LABORATORY:                 ,Capture Lab
#OPERATOR:                   ,NJN
#REMARK:                     ,Training run
#SAMPLE:                     ,M
#SAMPLE MASS /mg:            ,18.9745
#MATERIAL:                   ,zeolite
#TYPE OF CRUCIBLE:           ,Al2O3
#SAMPLE CRUCIBLE MASS /mg:   ,312.0043
#REFERENCE CRUCIBLE MASS /mg:,
#M.RANGE /mg:                ,2000
#CORR. CODE:                 ,090
#RANGE:                      ,32°C/10.0(K/min)/800°C
#SEGMENT:                    ,S1/1
#SEG. 1:                     ,32°C/10.0(K/min)/800°C

##Temp./°C,Time/min,Mass loss/mg
 32.22500, 0.00000,-1.909441e-003
 33.23300, 0.25667,-1.302215e-002
 35.24200, 0.51333,-2.963144e-002
 37.92600, 0.77000,-4.769039e-002
 40.98800, 1.02667,-7.255708e-002
 44.11100, 1.28333,      -0.10337
 47.08800, 1.54000,      -0.13921
 49.85400, 1.79667,      -0.18161
 52.44300, 2.05333,      -0.22925
 54.94100, 2.31000,      -0.28173
 57.41800, 2.56667,      -0.33794
 59.92700, 2.82333,      -0.39912
 62.46600, 3.08000,      -0.47280
 65.03600, 3.33667,      -0.54660
 67.62500, 3.59333,      -0.61413
 70.21400, 3.85000,      -0.68431
 72.81000, 4.10667,      -0.75666
 75.39000, 4.36333,      -0.83385
 77.97100, 4.62000,      -0.90066
 80.54400, 4.87667,      -0.96845
 83.11200, 5.13333,      -1.03391
 85.68700, 5.39000,      -1.08912
 88.26300, 5.64667,      -1.14510
 90.83600, 5.90333,      -1.19806
 93.40600, 6.16000,      -1.24661
 95.97800, 6.41667,      -1.28977
 98.54300, 6.67333,      -1.33122
101.11, 6.93000,      -1.36804
103.676, 7.18667,      -1.40268
106.243, 7.44333,      -1.43272
108.805, 7.70000,      -1.46121
111.365, 7.95667,      -1.48566
113.926, 8.21333,      -1.50768
116.492, 8.47000,      -1.52961
119.057, 8.72667,      -1.54838
121.62, 8.98333,      -1.56574
124.187, 9.24000,      -1.58136
126.746, 9.49667,      -1.59936
129.307, 9.75333,      -1.61566
131.865,10.01000,      -1.63343
134.439,10.26667,      -1.65201
137.004,10.52333,      -1.67153
139.575,10.78000,      -1.69265
142.142,11.03667,      -1.71625
144.707,11.29333,      -1.74144
147.273,11.55000,      -1.77152
149.83,11.80667,      -1.80348
152.399,12.06333,      -1.83916
154.978,12.32000,      -1.87552
157.565,12.57667,      -1.91278
160.146,12.83333,      -1.94651
162.728,13.09000,      -1.97714
165.293,13.34667,      -2.00655
167.852,13.60333,      -2.03678
170.409,13.86000,      -2.06711
172.963,14.11667,      -2.09815
175.521,14.37333,      -2.12709
178.085,14.63000,      -2.15684
180.653,14.88667,      -2.18809
183.219,15.14333,      -2.21884
185.785,15.40000,      -2.25049
188.354,15.65667,      -2.28246
190.925,15.91333,      -2.31474
193.49,16.17000,      -2.35053
196.059,16.42667,      -2.38493
198.627,16.68333,      -2.42124
201.195,16.94000,      -2.45837
203.757,17.19667,      -2.49960
206.324,17.45333,      -2.54054
208.893,17.71000,      -2.58678
211.459,17.96667,      -2.63693
214.02,18.22333,      -2.69087
216.593,18.48000,      -2.75843
219.156,18.73667,      -2.82577
221.734,18.99333,      -2.90853
224.295,19.25000,      -2.99338
226.859,19.50667,      -3.08314
229.428,19.76333,      -3.17770
231.996,20.02000,      -3.27936
234.561,20.27667,      -3.38322
237.126,20.53333,      -3.49188
239.688,20.79000,      -3.60534
242.256,21.04667,      -3.72001
244.823,21.30333,      -3.84187
247.397,21.56000,      -3.96523
249.951,21.81667,      -4.09269
252.519,22.07333,      -4.21995
255.08,22.33000,      -4.34831
257.64,22.58667,      -4.47498
260.205,22.84333,      -4.59743
262.768,23.10000,      -4.71879
265.335,23.35667,      -4.83435
267.9,23.61333,      -4.94860
270.469,23.87000,      -5.05955
273.039,24.12667,      -5.17259
275.605,24.38333,      -5.28224
278.169,24.64000,      -5.39058
280.736,24.89667,      -5.49972
283.328,25.15333,      -5.61165
285.877,25.41000,      -5.72198
288.437,25.66667,      -5.83601
290.999,25.92333,      -5.95313
293.564,26.18000,      -6.07465
296.128,26.43667,      -6.19776
298.699,26.69333,      -6.32997
301.268,26.95000,      -6.46857
303.838,27.20667,      -6.61237
306.402,27.46333,      -6.76547
308.964,27.72000,      -6.93258
311.537,27.97667,      -7.10378
314.102,28.23333,      -7.28348
316.662,28.49000,      -7.46499
319.233,28.74667,      -7.64238
321.785,29.00333,      -7.80029
324.339,29.26000,      -7.93589
326.901,29.51667,      -8.05429
329.465,29.77333,      -8.15619
332.038,30.03000,      -8.23749
334.613,30.28667,      -8.31638
337.177,30.54333,      -8.39478
339.735,30.80000,      -8.46007
342.31,31.05667,      -8.52076
344.88,31.31333,      -8.58055
347.439,31.57000,      -8.64784
350.007,31.82667,      -8.71232
352.572,32.08333,      -8.75820
355.14,32.34000,      -8.81238
357.704,32.59667,      -8.87696
360.265,32.85333,      -8.92413
362.836,33.11000,      -8.97670
365.395,33.36667,      -9.02927
367.962,33.62333,      -9.08043
370.532,33.88000,      -9.12859
373.087,34.13667,      -9.18446
375.658,34.39333,      -9.23340
378.221,34.65000,      -9.28225
380.784,34.90667,      -9.33230
383.353,35.16333,      -9.38003
385.919,35.42000,      -9.42827
388.477,35.67667,      -9.47811
391.043,35.93333,      -9.52473
393.609,36.19000,      -9.57165
396.174,36.44667,      -9.61627
398.732,36.70333,      -9.66508
401.3,36.96000,      -9.71088
403.87,37.21667,      -9.75398
406.433,37.47333,      -9.80018
408.999,37.73000,      -9.84448
411.564,37.98667,      -9.88767
414.138,38.24333,      -9.93076
416.7,38.50000,      -9.97635
419.26,38.75667,     -10.02113
421.831,39.01333,     -10.06151
424.397,39.27000,     -10.10249
426.957,39.52667,     -10.14516
429.52,39.78333,     -10.18983
432.084,40.04000,     -10.23230
434.648,40.29667,     -10.27707
437.211,40.55333,     -10.32403
439.782,40.81000,     -10.36608
442.35,41.06667,     -10.40844
444.907,41.32333,     -10.45820
447.472,41.58000,     -10.50254
450.038,41.83667,     -10.54739
452.6,42.09333,     -10.59344
455.162,42.35000,     -10.64028
457.729,42.60667,     -10.68752
460.29,42.86333,     -10.73595
462.858,43.12000,     -10.78308
465.424,43.37667,     -10.82761
467.985,43.63333,     -10.87104
470.553,43.89000,     -10.91106
473.114,44.14667,     -10.94788
475.678,44.40333,     -10.98370
478.24,44.66000,     -11.01621
480.806,44.91667,     -11.04452
483.376,45.17333,     -11.07113
485.937,45.43000,     -11.09624
488.503,45.68667,     -11.12074
491.064,45.94333,     -11.14564
493.63,46.20000,     -11.16693
496.2,46.45667,     -11.18752
498.763,46.71333,     -11.20651
501.325,46.97000,     -11.22900
503.887,47.22667,     -11.25049
506.45,47.48333,     -11.26947
509.019,47.74000,     -11.28645
511.581,47.99667,     -11.30543
514.144,48.25333,     -11.32291
516.708,48.51000,     -11.34008
519.271,48.76667,     -11.35786
521.828,49.02333,     -11.37433
524.394,49.28000,     -11.39170
526.963,49.53667,     -11.40446
529.523,49.79333,     -11.42033
532.086,50.05000,     -11.44169
534.661,50.30667,     -11.44904
537.221,50.56333,     -11.46570
539.793,50.82000,     -11.47955
542.353,51.07667,     -11.49420
544.92,51.33333,     -11.50894
547.479,51.59000,     -11.52139
550.045,51.84667,     -11.53423
552.613,52.10333,     -11.54627
555.176,52.36000,     -11.55990
557.748,52.61667,     -11.57273
560.32,52.87333,     -11.58505
562.874,53.13000,     -11.59959
565.439,53.38667,     -11.61330
568.007,53.64333,     -11.62592
570.578,53.90000,     -11.63913
573.15,54.15667,     -11.65213
575.711,54.41333,     -11.66454
578.279,54.67000,     -11.67714
580.842,54.92667,     -11.69094
583.404,55.18333,     -11.70813
585.976,55.44000,     -11.71931
588.537,55.69667,     -11.73700
591.102,55.95333,     -11.74948
593.672,56.21000,     -11.76696
596.236,56.46667,     -11.78183
598.813,56.72333,     -11.79389
601.373,56.98000,     -11.81286
603.939,57.23667,     -11.82881
606.511,57.49333,     -11.84416
609.078,57.75000,     -11.86061
611.638,58.00667,     -11.88016
614.21,58.26333,     -11.89659
616.766,58.52000,     -11.91703
619.336,58.77667,     -11.93476
621.906,59.03333,     -11.95269
624.464,59.29000,     -11.97511
627.035,59.54667,     -11.99413
629.596,59.80333,     -12.01515
632.163,60.06000,     -12.03776
634.729,60.31667,     -12.05888
637.294,60.57333,     -12.08118
639.862,60.83000,     -12.10618
642.431,61.08667,     -12.12828
644.996,61.34333,     -12.15207
647.555,61.60000,     -12.17317
650.115,61.85667,     -12.19846
652.682,62.11333,     -12.21945
655.244,62.37000,     -12.24313
657.812,62.62667,     -12.26641
660.384,62.88333,     -12.28529
662.948,63.14000,     -12.30477
665.514,63.39667,     -12.32184
668.084,63.65333,     -12.33311
670.652,63.91000,     -12.34068
673.211,64.16667,     -12.35195
675.782,64.42333,     -12.35940
678.339,64.68000,     -12.36907
680.908,64.93667,     -12.37482
683.473,65.19333,     -12.38058
686.041,65.45000,     -12.38963
688.61,65.70667,     -12.39899
691.175,65.96333,     -12.40644
693.741,66.22000,     -12.41239
696.304,66.47667,     -12.42044
698.873,66.73333,     -12.42748
701.44,66.99000,     -12.43572
704.006,67.24667,     -12.44087
706.571,67.50333,     -12.44561
709.134,67.76000,     -12.45505
711.697,68.01667,     -12.46130
714.267,68.27333,     -12.46564
716.83,68.53000,     -12.47778
719.397,68.78667,     -12.47832
721.959,69.04333,     -12.48506
724.515,69.30000,     -12.49760
727.088,69.55667,     -12.49953
729.656,69.81333,     -12.50406
732.223,70.07000,     -12.50879
734.789,70.32667,     -12.51592
737.36,70.58333,     -12.52025
739.915,70.84000,     -12.53127
742.484,71.09667,     -12.53399
745.05,71.35333,     -12.53971
747.615,71.61000,     -12.54382
750.177,71.86667,     -12.54964
752.748,72.12333,     -12.55384
755.316,72.38000,     -12.56145
757.883,72.63667,     -12.56894
760.447,72.89333,     -12.57244
763.008,73.15000,     -12.57523
765.575,73.40667,     -12.57932
768.139,73.66333,     -12.58710
770.702,73.92000,     -12.59168
773.273,74.17667,     -12.59735
775.836,74.43333,     -12.60121
778.403,74.69000,     -12.60627
780.976,74.94667,     -12.61132
783.545,75.20333,     -12.61547
786.105,75.46000,     -12.62012
788.673,75.71667,     -12.62595
791.239,75.97333,     -12.62888
793.803,76.23000,     -12.63650
796.367,76.48667,     -12.63952
798.943,76.74333,     -12.64342
799.5,76.79833,     -12.64443

File: MM_TGA.csv
#EXPORTTYPE:                 ,DATA SINGLE
#FILE:                       ,MM.ngb-st9
#FORMAT:                     ,NETZSCH5
#FTYPE:                      ,ANSI
#IDENTITY:                   ,Saras
#DECIMAL:                    ,POINT
#SEPARATOR:                  ,COMMA
#MTYPE:                      ,TG
#INSTRUMENT:                 ,NETZSCH TG 209F1 Libra
#PROJECT:                    ,IL
#DATE/TIME:                  ,21/03/2017 10:11:39 AM (UTC+11)
#CORR. FILE:                 ,
#TEMPCAL:                    ,TCALZERO.TCX
#LABORATORY:                 ,Capture Lab
#OPERATOR:                   ,NJN
#REMARK:                     ,Training run
#SAMPLE:                     ,MM
#SAMPLE MASS /mg:            ,11.2769
#MATERIAL:                   ,zeolite
#TYPE OF CRUCIBLE:           ,Al2O3
#SAMPLE CRUCIBLE MASS /mg:   ,311.1645
#REFERENCE CRUCIBLE MASS /mg:,
#M.RANGE /mg:                ,2000
#CORR. CODE:                 ,090
#RANGE:                      ,32°C/10.0(K/min)/800°C
#SEGMENT:                    ,S1/1
#SEG. 1:                     ,32°C/10.0(K/min)/800°C

##Temp./°C,Time/min,Mass loss/mg
 31.76700, 0.00000,-2.278087e-003
 32.87500, 0.25667, 9.951599e-004
 35.08000, 0.51333, 2.677985e-003
 37.95200, 0.77000, 1.808463e-003
 41.12400, 1.02667, 1.261896e-003
 44.27500, 1.28333,-8.895029e-004
 47.21600, 1.54000,-5.165871e-003
 49.92200, 1.79667,-9.869375e-003
 52.46500, 2.05333,-1.597734e-002
 54.93900, 2.31000,-2.324610e-002
 57.41100, 2.56667,-3.293893e-002
 59.92200, 2.82333,-4.267042e-002
 62.47000, 3.08000,-5.250821e-002
 65.05100, 3.33667,-6.492282e-002
 67.63400, 3.59333,-7.753861e-002
 70.22200, 3.85000,-9.179422e-002
 72.80300, 4.10667,      -0.10693
 75.38300, 4.36333,      -0.12224
 77.95200, 4.62000,      -0.13724
 80.51300, 4.87667,      -0.15222
 83.07700, 5.13333,      -0.16740
 85.64800, 5.39000,      -0.18191
 88.22400, 5.64667,      -0.19571
 90.79800, 5.90333,      -0.20926
 93.37600, 6.16000,      -0.22164
 95.94600, 6.41667,      -0.23318
 98.51600, 6.67333,      -0.24404
101.089, 6.93000,      -0.25405
103.655, 7.18667,      -0.26159
106.217, 7.44333,      -0.26881
108.781, 7.70000,      -0.27529
111.348, 7.95667,      -0.28206
113.907, 8.21333,      -0.28759
116.472, 8.47000,      -0.29360
119.04, 8.72667,      -0.29968
121.606, 8.98333,      -0.30505
124.175, 9.24000,      -0.31037
126.74, 9.49667,      -0.31539
129.309, 9.75333,      -0.32048
131.877,10.01000,      -0.32534
134.443,10.26667,      -0.32960
137.012,10.52333,      -0.33403
139.579,10.78000,      -0.33905
142.146,11.03667,      -0.34345
144.718,11.29333,      -0.34855
147.282,11.55000,      -0.35412
149.851,11.80667,      -0.35980
152.422,12.06333,      -0.36606
154.987,12.32000,      -0.37280
157.552,12.57667,      -0.37995
160.119,12.83333,      -0.38789
162.683,13.09000,      -0.39643
165.245,13.34667,      -0.40606
167.815,13.60333,      -0.41580
170.383,13.86000,      -0.42594
172.946,14.11667,      -0.43677
175.512,14.37333,      -0.44930
178.083,14.63000,      -0.46225
180.647,14.88667,      -0.47709
183.214,15.14333,      -0.49314
185.785,15.40000,      -0.51090
188.356,15.65667,      -0.53057
190.922,15.91333,      -0.55224
193.487,16.17000,      -0.57673
196.05,16.42667,      -0.60293
198.619,16.68333,      -0.63195
201.183,16.94000,      -0.66317
203.754,17.19667,      -0.69761
206.321,17.45333,      -0.73384
208.889,17.71000,      -0.77319
211.455,17.96667,      -0.81483
214.02,18.22333,      -0.85868
216.589,18.48000,      -0.90403
219.16,18.73667,      -0.95208
221.719,18.99333,      -1.00233
224.287,19.25000,      -1.05328
226.853,19.50667,      -1.10544
229.423,19.76333,      -1.16010
231.987,20.02000,      -1.21666
234.552,20.27667,      -1.27542
237.118,20.53333,      -1.33798
239.686,20.79000,      -1.41165
242.254,21.04667,      -1.48061
244.814,21.30333,      -1.56337
247.38,21.56000,      -1.63513
249.945,21.81667,      -1.72630
252.51,22.07333,      -1.81056
255.073,22.33000,      -1.89882
257.642,22.58667,      -1.99108
260.208,22.84333,      -2.08624
262.77,23.10000,      -2.18529
265.338,23.35667,      -2.28935
267.903,23.61333,      -2.39420
270.469,23.87000,      -2.50325
273.033,24.12667,      -2.61569
275.6,24.38333,      -2.73284
278.166,24.64000,      -2.85158
280.738,24.89667,      -2.97302
283.323,25.15333,      -3.09675
285.868,25.41000,      -3.22368
288.431,25.66667,      -3.35151
290.996,25.92333,      -3.48033
293.56,26.18000,      -3.60965
296.128,26.43667,      -3.74276
298.691,26.69333,      -3.87587
301.259,26.95000,      -4.01067
303.822,27.20667,      -4.15037
306.391,27.46333,      -4.29197
308.955,27.72000,      -4.43618
311.526,27.97667,      -4.58248
314.088,28.23333,      -4.73208
316.656,28.49000,      -4.87469
319.233,28.74667,      -5.01148
321.786,29.00333,      -5.13959
324.347,29.26000,      -5.25449
326.908,29.51667,      -5.35659
329.472,29.77333,      -5.44789
332.042,30.03000,      -5.51839
334.617,30.28667,      -5.58758
337.175,30.54333,      -5.65198
339.733,30.80000,      -5.70897
342.299,31.05667,      -5.76266
344.865,31.31333,      -5.81215
347.431,31.57000,      -5.85834
349.999,31.82667,      -5.90232
352.565,32.08333,      -5.94320
355.13,32.34000,      -5.98208
357.696,32.59667,      -6.01936
360.264,32.85333,      -6.05443
362.825,33.11000,      -6.09010
365.394,33.36667,      -6.12357
367.96,33.62333,      -6.15573
370.523,33.88000,      -6.18780
373.089,34.13667,      -6.21935
375.652,34.39333,      -6.24941
378.215,34.65000,      -6.27966
380.78,34.90667,      -6.30940
383.346,35.16333,      -6.33754
385.907,35.42000,      -6.36667
388.489,35.67667,      -6.39530
391.054,35.93333,      -6.42273
393.606,36.19000,      -6.44985
396.172,36.44667,      -6.47767
398.737,36.70333,      -6.50428
401.297,36.96000,      -6.52988
403.863,37.21667,      -6.55548
406.432,37.47333,      -6.58108
408.997,37.73000,      -6.60618
411.563,37.98667,      -6.63117
414.127,38.24333,      -6.65496
416.69,38.50000,      -6.67955
419.251,38.75667,      -6.70293
421.822,39.01333,      -6.72601
424.385,39.27000,      -6.74909
426.946,39.52667,      -6.77106
429.511,39.78333,      -6.79413
432.073,40.04000,      -6.81620
434.643,40.29667,      -6.83737
437.208,40.55333,      -6.85853
439.769,40.81000,      -6.87939
442.335,41.06667,      -6.90004
444.897,41.32333,      -6.92030
447.466,41.58000,      -6.93975
450.029,41.83667,      -6.95969
452.591,42.09333,      -6.97884
455.158,42.35000,      -6.99828
457.72,42.60667,      -7.01692
460.288,42.86333,      -7.03535
462.849,43.12000,      -7.05359
465.411,43.37667,      -7.07091
467.983,43.63333,      -7.08834
470.549,43.89000,      -7.10556
473.112,44.14667,      -7.12118
475.677,44.40333,      -7.13650
478.242,44.66000,      -7.15121
480.8,44.91667,      -7.16552
483.367,45.17333,      -7.17863
485.936,45.43000,      -7.19113
488.503,45.68667,      -7.20364
491.065,45.94333,      -7.21474
493.626,46.20000,      -7.22723
496.196,46.45667,      -7.23822
498.754,46.71333,      -7.24951
501.324,46.97000,      -7.26000
503.885,47.22667,      -7.27019
506.452,47.48333,      -7.28037
509.012,47.74000,      -7.29145
511.574,47.99667,      -7.29963
514.141,48.25333,      -7.30991
516.706,48.51000,      -7.31788
519.273,48.76667,      -7.32855
521.834,49.02333,      -7.33773
524.399,49.28000,      -7.34669
526.965,49.53667,      -7.35546
529.538,49.79333,      -7.36512
532.102,50.05000,      -7.37208
534.663,50.30667,      -7.38164
537.232,50.56333,      -7.38959
539.8,50.82000,      -7.39715
542.361,51.07667,      -7.40590
544.929,51.33333,      -7.41314
547.496,51.59000,      -7.42099
550.057,51.84667,      -7.42883
552.625,52.10333,      -7.43576
555.192,52.36000,      -7.44410
557.767,52.61667,      -7.45032
560.334,52.87333,      -7.45895
562.903,53.13000,      -7.46557
565.465,53.38667,      -7.47250
568.034,53.64333,      -7.48101
570.597,53.90000,      -7.48713
573.173,54.15667,      -7.49632
575.738,54.41333,      -7.50144
578.299,54.67000,      -7.50834
580.862,54.92667,      -7.51443
583.425,55.18333,      -7.52273
585.99,55.44000,      -7.52931
588.554,55.69667,      -7.53620
591.131,55.95333,      -7.54427
593.689,56.21000,      -7.55015
596.26,56.46667,      -7.55752
598.825,56.72333,      -7.56489
601.391,56.98000,      -7.57355
603.959,57.23667,      -7.58010
606.524,57.49333,      -7.58856
609.089,57.75000,      -7.59681
611.658,58.00667,      -7.60275
614.219,58.26333,      -7.61219
616.78,58.52000,      -7.61953
619.349,58.77667,      -7.62676
621.919,59.03333,      -7.63398
624.483,59.29000,      -7.64261
627.045,59.54667,      -7.64983
629.611,59.80333,      -7.65895
632.179,60.06000,      -7.66446
634.742,60.31667,      -7.67177
637.298,60.57333,      -7.67898
639.865,60.83000,      -7.68568
642.43,61.08667,      -7.69168
644.998,61.34333,      -7.69647
647.563,61.60000,      -7.70167
650.128,61.85667,      -7.70656
652.688,62.11333,      -7.71065
655.255,62.37000,      -7.71563
657.82,62.62667,      -7.72031
660.391,62.88333,      -7.72449
662.951,63.14000,      -7.72807
665.521,63.39667,      -7.73234
668.088,63.65333,      -7.73660
670.655,63.91000,      -7.74068
673.22,64.16667,      -7.74554
675.787,64.42333,      -7.74971
678.349,64.68000,      -7.75307
680.917,64.93667,      -7.75642
683.477,65.19333,      -7.76018
686.051,65.45000,      -7.76433
688.616,65.70667,      -7.76808
691.184,65.96333,      -7.77243
693.752,66.22000,      -7.77638
696.319,66.47667,      -7.77993
698.885,66.73333,      -7.78437
701.45,66.99000,      -7.78822
704.011,67.24667,      -7.79207
706.578,67.50333,      -7.79521
709.147,67.76000,      -7.79745
711.707,68.01667,      -7.80389
714.28,68.27333,      -7.80633
716.845,68.53000,      -7.80958
719.411,68.78667,      -7.81251
721.967,69.04333,      -7.81666
724.535,69.30000,      -7.81999
727.102,69.55667,      -7.82373
729.663,69.81333,      -7.82726
732.23,70.07000,      -7.83069
734.793,70.32667,      -7.83482
737.362,70.58333,      -7.83754
739.931,70.84000,      -7.84117
742.493,71.09667,      -7.84539
745.064,71.35333,      -7.84881
747.627,71.61000,      -7.85202
750.197,71.86667,      -7.85503
752.765,72.12333,      -7.85954
755.326,72.38000,      -7.86214
757.898,72.63667,      -7.86564
760.461,72.89333,      -7.86914
763.024,73.15000,      -7.87203
765.59,73.40667,      -7.87551
768.151,73.66333,      -7.87990
770.718,73.92000,      -7.88257
773.285,74.17667,      -7.88554
775.851,74.43333,      -7.88891
778.419,74.69000,      -7.89157
780.982,74.94667,      -7.89532
783.556,75.20333,      -7.89917
786.113,75.46000,      -7.90222
788.686,75.71667,      -7.90624
791.253,75.97333,      -7.90988
793.815,76.23000,      -7.91320
796.384,76.48667,      -7.91631
798.949,76.74333,      -7.91992
799.504,76.79833,      -7.92073