Folder: biomass.carbon/data-raw/TGA (part 15)

File: V_TGA.csv
#EXPORTTYPE:                 ,DATA SINGLE
#FILE:                       ,V.ngb-st9
#FORMAT:                     ,NETZSCH5
#FTYPE:                      ,ANSI
#IDENTITY:                   ,Saras
#DECIMAL:                    ,POINT
#SEPARATOR:                  ,COMMA
#MTYPE:                      ,TG
#INSTRUMENT:                 ,NETZSCH TG 209F1 Libra
#PROJECT:                    ,IL
#DATE/TIME:                  ,23/03/2017 9:07:49 AM (UTC+11)
#CORR. FILE:                 ,
#TEMPCAL:                    ,TCALZERO.TCX
#LABORATORY:                 ,Capture Lab
#OPERATOR:                   ,NJN
#REMARK:                     ,Training run
#SAMPLE:                     ,V
#SAMPLE MASS /mg:            ,16.7750
#MATERIAL:                   ,zeolite
#TYPE OF CRUCIBLE:           ,Al2O3
#SAMPLE CRUCIBLE MASS /mg:   ,311.1670
#REFERENCE CRUCIBLE MASS /mg:,
#M.RANGE /mg:                ,2000
#CORR. CODE:                 ,090
#RANGE:                      ,32°C/10.0(K/min)/800°C
#SEGMENT:                    ,S1/1
#SEG. 1:                     ,32°C/10.0(K/min)/800°C

##Temp./°C,Time/min,Mass loss/mg
 31.46200, 0.00000,-2.597904e-003
 32.61200, 0.25667,-6.677192e-003
 34.89700, 0.51333,-1.509575e-002
 37.87000, 0.77000,-3.113704e-002
 41.12000, 1.02667,-5.054863e-002
 44.31000, 1.28333,-7.582922e-002
 47.25400, 1.54000,      -0.10678
 49.94900, 1.79667,      -0.14112
 52.48000, 2.05333,      -0.18032
 54.94200, 2.31000,      -0.22393
 57.42200, 2.56667,      -0.27106
 59.92100, 2.82333,      -0.32211
 62.47100, 3.08000,      -0.37562
 65.04500, 3.33667,      -0.43410
 67.64400, 3.59333,      -0.49290
 70.24300, 3.85000,      -0.55395
 72.83000, 4.10667,      -0.61635
 75.41100, 4.36333,      -0.67506
 77.98900, 4.62000,      -0.73246
 80.56100, 4.87667,      -0.79014
 83.12400, 5.13333,      -0.84401
 85.69700, 5.39000,      -0.89490
 88.27100, 5.64667,      -0.93960
 90.85100, 5.90333,      -0.98348
 93.42200, 6.16000,      -1.02422
 95.99200, 6.41667,      -1.05897
 98.55700, 6.67333,      -1.09185
101.12, 6.93000,      -1.12272
103.687, 7.18667,      -1.14970
106.25, 7.44333,      -1.17350
108.815, 7.70000,      -1.19370
111.373, 7.95667,      -1.21295
113.937, 8.21333,      -1.22928
116.506, 8.47000,      -1.24361
119.071, 8.72667,      -1.25648
121.636, 8.98333,      -1.26723
124.199, 9.24000,      -1.27837
126.761, 9.49667,      -1.29107
129.326, 9.75333,      -1.29777
131.891,10.01000,      -1.31023
134.46,10.26667,      -1.32029
137.029,10.52333,      -1.32654
139.602,10.78000,      -1.33665
142.166,11.03667,      -1.34604
144.732,11.29333,      -1.35484
147.298,11.55000,      -1.36632
149.868,11.80667,      -1.37199
152.441,12.06333,      -1.38206
155.005,12.32000,      -1.39330
157.569,12.57667,      -1.40285
160.141,12.83333,      -1.40859
162.709,13.09000,      -1.41992
165.267,13.34667,      -1.43175
167.833,13.60333,      -1.44040
170.396,13.86000,      -1.45403
172.963,14.11667,      -1.46786
175.528,14.37333,      -1.48130
178.092,14.63000,      -1.49624
180.658,14.88667,      -1.51209
183.233,15.14333,      -1.52694
185.808,15.40000,      -1.54410
188.375,15.65667,      -1.56266
190.938,15.91333,      -1.58183
193.503,16.17000,      -1.60023
196.065,16.42667,      -1.62073
198.636,16.68333,      -1.64305
201.203,16.94000,      -1.66667
203.77,17.19667,      -1.69281
206.338,17.45333,      -1.72034
208.904,17.71000,      -1.75238
211.474,17.96667,      -1.78613
214.042,18.22333,      -1.82647
216.608,18.48000,      -1.86613
219.173,18.73667,      -1.91207
221.737,18.99333,      -1.96362
224.306,19.25000,      -2.01778
226.875,19.50667,      -2.07364
229.437,19.76333,      -2.14930
232.004,20.02000,      -2.20416
234.568,20.27667,      -2.28302
237.134,20.53333,      -2.34968
239.702,20.79000,      -2.43435
242.262,21.04667,      -2.51631
244.832,21.30333,      -2.60267
247.395,21.56000,      -2.69643
249.96,21.81667,      -2.79489
252.532,22.07333,      -2.89816
255.101,22.33000,      -3.01092
257.668,22.58667,      -3.12777
260.229,22.84333,      -3.25363
262.792,23.10000,      -3.38749
265.364,23.35667,      -3.52064
267.929,23.61333,      -3.66940
270.5,23.87000,      -3.82204
273.059,24.12667,      -3.98019
275.627,24.38333,      -4.14274
278.191,24.64000,      -4.31588
280.779,24.89667,      -4.49041
283.314,25.15333,      -4.67035
285.881,25.41000,      -4.85148
288.444,25.66667,      -5.03931
291.009,25.92333,      -5.22663
293.577,26.18000,      -5.41215
296.143,26.43667,      -5.60096
298.708,26.69333,      -5.78517
301.279,26.95000,      -5.96097
303.843,27.20667,      -6.13797
306.41,27.46333,      -6.31217
308.973,27.72000,      -6.48198
311.545,27.97667,      -6.65048
314.112,28.23333,      -6.82598
316.679,28.49000,      -7.00158
319.252,28.74667,      -7.17908
321.801,29.00333,      -7.35829
324.36,29.26000,      -7.53349
326.933,29.51667,      -7.70429
329.497,29.77333,      -7.87199
332.064,30.03000,      -8.02988
334.626,30.28667,      -8.17538
337.186,30.54333,      -8.31558
339.754,30.80000,      -8.44047
342.326,31.05667,      -8.55136
344.89,31.31333,      -8.65265
347.453,31.57000,      -8.73783
350.021,31.82667,      -8.81002
352.581,32.08333,      -8.87870
355.147,32.34000,      -8.94128
357.711,32.59667,      -8.99866
360.285,32.85333,      -9.05193
362.853,33.11000,      -9.10310
365.413,33.36667,      -9.14927
367.982,33.62333,      -9.19393
370.537,33.88000,      -9.23930
373.109,34.13667,      -9.28275
375.677,34.39333,      -9.32290
378.233,34.65000,      -9.36635
380.801,34.90667,      -9.40720
383.365,35.16333,      -9.44883
385.933,35.42000,      -9.48477
388.491,35.67667,      -9.52590
391.061,35.93333,      -9.56293
393.62,36.19000,      -9.60255
396.189,36.44667,      -9.63866
398.756,36.70333,      -9.67537
401.316,36.96000,      -9.71168
403.881,37.21667,      -9.74828
406.442,37.47333,      -9.78408
409.012,37.73000,      -9.81837
411.573,37.98667,      -9.85407
414.141,38.24333,      -9.88666
416.706,38.50000,      -9.92114
419.272,38.75667,      -9.95283
421.837,39.01333,      -9.98541
424.401,39.27000,     -10.01789
426.965,39.52667,     -10.04986
429.526,39.78333,     -10.08143
432.087,40.04000,     -10.11340
434.656,40.29667,     -10.14206
437.222,40.55333,     -10.17363
439.78,40.81000,     -10.20529
442.352,41.06667,     -10.23574
444.919,41.32333,     -10.26519
447.479,41.58000,     -10.29585
450.043,41.83667,     -10.32729
452.613,42.09333,     -10.35733
455.176,42.35000,     -10.38858
457.74,42.60667,     -10.42091
460.308,42.86333,     -10.45245
462.874,43.12000,     -10.48328
465.435,43.37667,     -10.51501
467.998,43.63333,     -10.55024
470.562,43.89000,     -10.58306
473.133,44.14667,     -10.61267
475.696,44.40333,     -10.64089
478.253,44.66000,     -10.67041
480.819,44.91667,     -10.69212
483.385,45.17333,     -10.71393
485.952,45.43000,     -10.73443
488.511,45.68667,     -10.75564
491.07,45.94333,     -10.77674
493.642,46.20000,     -10.79622
496.217,46.45667,     -10.81181
498.777,46.71333,     -10.83011
501.336,46.97000,     -10.84810
503.903,47.22667,     -10.86508
506.457,47.48333,     -10.88557
509.037,47.74000,     -10.89664
511.593,47.99667,     -10.91653
514.159,48.25333,     -10.93030
516.721,48.51000,     -10.94868
519.292,48.76667,     -10.96315
521.852,49.02333,     -10.98143
524.42,49.28000,     -10.99299
526.983,49.53667,     -11.01236
529.556,49.79333,     -11.02591
532.125,50.05000,     -11.03828
534.68,50.30667,     -11.05544
537.253,50.56333,     -11.06879
539.816,50.82000,     -11.08344
542.391,51.07667,     -11.09439
544.953,51.33333,     -11.10904
547.519,51.59000,     -11.12398
550.078,51.84667,     -11.14013
552.652,52.10333,     -11.14846
555.222,52.36000,     -11.16429
557.79,52.61667,     -11.17742
560.352,52.87333,     -11.18765
562.91,53.13000,     -11.20238
565.486,53.38667,     -11.21309
568.054,53.64333,     -11.22371
570.615,53.90000,     -11.23802
573.181,54.15667,     -11.24853
575.755,54.41333,     -11.26212
578.319,54.67000,     -11.27373
580.878,54.92667,     -11.28603
583.443,55.18333,     -11.29492
586.009,55.44000,     -11.30681
588.57,55.69667,     -11.31960
591.133,55.95333,     -11.33097
593.698,56.21000,     -11.34415
596.258,56.46667,     -11.35622
598.83,56.72333,     -11.36718
601.396,56.98000,     -11.38125
603.967,57.23667,     -11.38930
606.531,57.49333,     -11.40626
609.102,57.75000,     -11.41670
611.662,58.00667,     -11.43065
614.222,58.26333,     -11.44339
616.789,58.52000,     -11.45803
619.353,58.77667,     -11.47166
621.913,59.03333,     -11.48619
624.489,59.29000,     -11.49700
627.047,59.54667,     -11.51383
629.617,59.80333,     -11.52534
632.179,60.06000,     -11.54066
634.741,60.31667,     -11.55407
637.307,60.57333,     -11.56538
639.871,60.83000,     -11.57948
642.439,61.08667,     -11.59118
645.003,61.34333,     -11.60258
647.564,61.60000,     -11.61107
650.132,61.85667,     -11.62006
652.696,62.11333,     -11.63005
655.264,62.37000,     -11.63643
657.827,62.62667,     -11.64611
660.392,62.88333,     -11.65099
662.951,63.14000,     -11.65947
665.514,63.39667,     -11.67004
668.084,63.65333,     -11.67461
670.652,63.91000,     -11.67988
673.222,64.16667,     -11.68774
675.786,64.42333,     -11.69500
678.349,64.68000,     -11.69907
680.908,64.93667,     -11.70853
683.476,65.19333,     -11.71258
686.039,65.45000,     -11.72504
688.612,65.70667,     -11.72628
691.179,65.96333,     -11.73304
693.745,66.22000,     -11.73988
696.311,66.47667,     -11.74313
698.878,66.73333,     -11.75418
701.44,66.99000,     -11.75832
704.014,67.24667,     -11.76226
706.565,67.50333,     -11.76941
709.136,67.76000,     -11.77215
711.703,68.01667,     -11.77859
714.274,68.27333,     -11.78633
716.838,68.53000,     -11.79138
719.405,68.78667,     -11.79801
721.963,69.04333,     -11.79876
724.532,69.30000,     -11.80529
727.093,69.55667,     -11.81223
729.673,69.81333,     -11.82045
732.224,70.07000,     -11.82270
734.802,70.32667,     -11.82322
737.359,70.58333,     -11.83265
739.927,70.84000,     -11.83567
742.491,71.09667,     -11.84469
745.06,71.35333,     -11.84501
747.623,71.61000,     -11.84952
750.194,71.86667,     -11.85623
752.759,72.12333,     -11.85914
755.317,72.38000,     -11.86845
757.886,72.63667,     -11.87194
760.45,72.89333,     -11.87564
763.019,73.15000,     -11.87893
765.579,73.40667,     -11.88172
768.15,73.66333,     -11.88890
770.711,73.92000,     -11.89258
773.28,74.17667,     -11.89514
775.841,74.43333,     -11.90041
778.41,74.69000,     -11.90607
780.986,74.94667,     -11.91012
783.551,75.20333,     -11.91507
786.119,75.46000,     -11.91871
788.682,75.71667,     -11.92215
791.25,75.97333,     -11.92798
793.818,76.23000,     -11.93370
796.387,76.48667,     -11.93581
798.955,76.74333,     -11.93942
799.353,76.78333,     -11.94098

File: X_TGA.csv
#EXPORTTYPE:                 ,DATA SINGLE
#FILE:                       ,X.ngb-st9
#FORMAT:                     ,NETZSCH5
#FTYPE:                      ,ANSI
#IDENTITY:                   ,Saras
#DECIMAL:                    ,POINT
#SEPARATOR:                  ,COMMA
#MTYPE:                      ,TG
#INSTRUMENT:                 ,NETZSCH TG 209F1 Libra
#PROJECT:                    ,IL
#DATE/TIME:                  ,23/03/2017 10:55:01 AM (UTC+11)
#CORR. FILE:                 ,
#TEMPCAL:                    ,TCALZERO.TCX
#LABORATORY:                 ,Capture Lab
#OPERATOR:                   ,NJN
#REMARK:                     ,Training run
#SAMPLE:                     ,X
#SAMPLE MASS /mg:            ,11.2418
#MATERIAL:                   ,zeolite
#TYPE OF CRUCIBLE:           ,Al2O3
#SAMPLE CRUCIBLE MASS /mg:   ,312.0761
#REFERENCE CRUCIBLE MASS /mg:,
#M.RANGE /mg:                ,2000
#CORR. CODE:                 ,090
#RANGE:                      ,32°C/10.0(K/min)/800°C
#SEGMENT:                    ,S1/1
#SEG. 1:                     ,32°C/10.0(K/min)/800°C

##Temp./°C,Time/min,Mass loss/mg
 32.49300, 0.00000,-2.650532e-003
 33.46900, 0.25667,-6.537866e-003
 35.38500, 0.51333,-1.033738e-002
 37.98500, 0.77000,-1.600215e-002
 40.99500, 1.02667,-2.604176e-002
 44.10000, 1.28333,-4.219287e-002
 47.07300, 1.54000,-5.769344e-002
 49.84500, 1.79667,-7.742868e-002
 52.44400, 2.05333,-9.939768e-002
 54.95300, 2.31000,      -0.12428
 57.43300, 2.56667,      -0.15048
 59.94400, 2.82333,      -0.17973
 62.48600, 3.08000,      -0.20929
 65.05300, 3.33667,      -0.24120
 67.63900, 3.59333,      -0.27414
 70.23000, 3.85000,      -0.30792
 72.81300, 4.10667,      -0.34073
 75.38400, 4.36333,      -0.37443
 77.96300, 4.62000,      -0.40597
 80.53300, 4.87667,      -0.43625
 83.10100, 5.13333,      -0.46623
 85.67200, 5.39000,      -0.49430
 88.24300, 5.64667,      -0.52139
 90.81000, 5.90333,      -0.54575
 93.38300, 6.16000,      -0.56732
 95.95900, 6.41667,      -0.58898
 98.53000, 6.67333,      -0.60974
101.094, 6.93000,      -0.62722
103.655, 7.18667,      -0.64408
106.219, 7.44333,      -0.65872
108.784, 7.70000,      -0.67382
111.354, 7.95667,      -0.68628
113.924, 8.21333,      -0.69751
116.493, 8.47000,      -0.70761
119.049, 8.72667,      -0.71766
121.607, 8.98333,      -0.72762
124.175, 9.24000,      -0.73797
126.743, 9.49667,      -0.74529
129.312, 9.75333,      -0.75367
131.883,10.01000,      -0.75985
134.455,10.26667,      -0.76710
137.022,10.52333,      -0.77373
139.587,10.78000,      -0.77954
142.153,11.03667,      -0.78415
144.724,11.29333,      -0.78915
147.29,11.55000,      -0.79482
149.855,11.80667,      -0.80069
152.424,12.06333,      -0.80635
154.99,12.32000,      -0.81130
157.558,12.57667,      -0.81535
160.12,12.83333,      -0.82149
162.687,13.09000,      -0.82723
165.254,13.34667,      -0.83356
167.816,13.60333,      -0.84170
170.387,13.86000,      -0.84803
172.952,14.11667,      -0.85706
175.517,14.37333,      -0.86660
178.088,14.63000,      -0.87355
180.653,14.88667,      -0.88698
183.218,15.14333,      -0.89754
185.79,15.40000,      -0.90970
188.357,15.65667,      -0.92416
190.924,15.91333,      -0.93954
193.488,16.17000,      -0.95793
196.058,16.42667,      -0.97824
198.623,16.68333,      -1.00014
201.186,16.94000,      -1.02397
203.751,17.19667,      -1.05131
206.321,17.45333,      -1.08155
208.89,17.71000,      -1.11579
211.458,17.96667,      -1.15113
214.025,18.22333,      -1.19107
216.591,18.48000,      -1.23452
219.157,18.73667,      -1.27917
221.721,18.99333,      -1.32813
224.289,19.25000,      -1.37868
226.856,19.50667,      -1.43204
229.423,19.76333,      -1.48790
231.988,20.02000,      -1.54736
234.551,20.27667,      -1.60892
237.112,20.53333,      -1.67148
239.682,20.79000,      -1.74365
242.251,21.04667,      -1.81121
244.819,21.30333,      -1.88637
247.382,21.56000,      -1.96193
249.951,21.81667,      -2.03570
252.515,22.07333,      -2.12526
255.075,22.33000,      -2.20992
257.642,22.58667,      -2.29498
260.21,22.84333,      -2.38574
262.774,23.10000,      -2.47929
265.343,23.35667,      -2.57845
267.914,23.61333,      -2.68100
270.478,23.87000,      -2.78895
273.046,24.12667,      -2.90249
275.608,24.38333,      -3.02034
278.175,24.64000,      -3.14228
280.743,24.89667,      -3.26702
283.315,25.15333,      -3.39555
285.913,25.41000,      -3.52798
288.438,25.66667,      -3.66151
290.996,25.92333,      -3.79973
293.56,26.18000,      -3.93815
296.131,26.43667,      -4.07766
298.691,26.69333,      -4.21957
301.262,26.95000,      -4.36247
303.83,27.20667,      -4.50497
306.393,27.46333,      -4.65107
308.957,27.72000,      -4.79868
311.529,27.97667,      -4.94808
314.096,28.23333,      -5.09708
316.66,28.49000,      -5.24638
319.228,28.74667,      -5.39439
321.796,29.00333,      -5.53439
324.357,29.26000,      -5.66739
326.923,29.51667,      -5.78909
329.484,29.77333,      -5.90179
332.046,30.03000,      -6.00169
334.616,30.28667,      -6.09058
337.18,30.54333,      -6.16338
339.746,30.80000,      -6.23057
342.313,31.05667,      -6.29526
344.874,31.31333,      -6.34995
347.443,31.57000,      -6.40433
350.006,31.82667,      -6.45532
352.572,32.08333,      -6.50470
355.14,32.34000,      -6.55208
357.705,32.59667,      -6.59756
360.269,32.85333,      -6.64093
362.838,33.11000,      -6.68280
365.4,33.36667,      -6.72537
367.963,33.62333,      -6.76464
370.533,33.88000,      -6.80309
373.094,34.13667,      -6.84085
375.654,34.39333,      -6.87960
378.227,34.65000,      -6.91565
380.792,34.90667,      -6.95070
383.352,35.16333,      -6.98644
385.921,35.42000,      -7.02147
388.49,35.67667,      -7.05470
391.052,35.93333,      -7.08643
393.602,36.19000,      -7.12196
396.173,36.44667,      -7.15417
398.737,36.70333,      -7.18508
401.303,36.96000,      -7.21598
403.868,37.21667,      -7.24688
406.435,37.47333,      -7.27568
408.999,37.73000,      -7.30408
411.56,37.98667,      -7.33277
414.128,38.24333,      -7.36126
416.684,38.50000,      -7.39045
419.26,38.75667,      -7.41583
421.819,39.01333,      -7.44491
424.392,39.27000,      -7.47018
426.955,39.52667,      -7.49566
429.521,39.78333,      -7.52073
432.085,40.04000,      -7.54540
434.647,40.29667,      -7.57027
437.206,40.55333,      -7.59563
439.771,40.81000,      -7.62069
442.338,41.06667,      -7.64254
444.906,41.32333,      -7.66459
447.472,41.58000,      -7.68774
450.039,41.83667,      -7.70739
452.6,42.09333,      -7.72914
455.166,42.35000,      -7.74938
457.736,42.60667,      -7.76771
460.296,42.86333,      -7.78825
462.858,43.12000,      -7.80678
465.429,43.37667,      -7.82531
467.993,43.63333,      -7.84254
470.556,43.89000,      -7.85766
473.125,44.14667,      -7.87158
475.68,44.40333,      -7.88870
478.252,44.66000,      -7.89871
480.808,44.91667,      -7.91393
483.371,45.17333,      -7.92693
485.941,45.43000,      -7.93813
488.502,45.68667,      -7.95024
491.073,45.94333,      -7.96063
493.638,46.20000,      -7.97163
496.201,46.45667,      -7.98242
498.764,46.71333,      -7.99301
501.329,46.97000,      -8.00190
503.89,47.22667,      -8.01009
506.457,47.48333,      -8.01957
509.02,47.74000,      -8.02955
511.587,47.99667,      -8.03753
514.145,48.25333,      -8.04611
516.717,48.51000,      -8.05458
519.279,48.76667,      -8.06336
521.846,49.02333,      -8.06742
524.405,49.28000,      -8.07729
526.97,49.53667,      -8.08576
529.54,49.79333,      -8.09312
532.108,50.05000,      -8.09888
534.665,50.30667,      -8.10624
537.235,50.56333,      -8.11269
539.795,50.82000,      -8.11895
542.361,51.07667,      -8.12540
544.924,51.33333,      -8.13335
547.486,51.59000,      -8.14039
550.05,51.84667,      -8.14583
552.611,52.10333,      -8.15027
555.177,52.36000,      -8.15760
557.742,52.61667,      -8.16473
560.315,52.87333,      -8.16725
562.877,53.13000,      -8.17508
565.449,53.38667,      -8.18040
568.015,53.64333,      -8.18581
570.579,53.90000,      -8.19133
573.147,54.15667,      -8.19754
575.714,54.41333,      -8.20214
578.283,54.67000,      -8.20764
580.846,54.92667,      -8.21424
583.411,55.18333,      -8.21863
585.977,55.44000,      -8.22432
588.545,55.69667,      -8.22990
591.116,55.95333,      -8.23488
593.687,56.21000,      -8.24085
596.247,56.46667,      -8.25033
598.819,56.72333,      -8.25459
601.386,56.98000,      -8.25955
603.952,57.23667,      -8.26590
606.521,57.49333,      -8.27176
609.081,57.75000,      -8.27751
611.654,58.00667,      -8.28465
614.217,58.26333,      -8.29069
616.774,58.52000,      -8.29753
619.341,58.77667,      -8.30546
621.909,59.03333,      -8.31099
624.471,59.29000,      -8.31832
627.032,59.54667,      -8.32423
629.596,59.80333,      -8.33345
632.162,60.06000,      -8.33786
634.729,60.31667,      -8.34727
637.292,60.57333,      -8.35288
639.851,60.83000,      -8.35799
642.416,61.08667,      -8.36419
644.982,61.34333,      -8.37138
647.546,61.60000,      -8.37737
650.113,61.85667,      -8.38266
652.684,62.11333,      -8.38985
655.246,62.37000,      -8.39474
657.809,62.62667,      -8.40001
660.372,62.88333,      -8.40449
662.937,63.14000,      -8.41077
665.503,63.39667,      -8.41534
668.066,63.65333,      -8.41942
670.636,63.91000,      -8.42608
673.201,64.16667,      -8.42945
675.768,64.42333,      -8.43741
678.336,64.68000,      -8.44157
680.901,64.93667,      -8.44713
683.469,65.19333,      -8.45018
686.047,65.45000,      -8.45323
688.603,65.70667,      -8.45719
691.17,65.96333,      -8.46344
693.734,66.22000,      -8.47009
696.308,66.47667,      -8.47223
698.874,66.73333,      -8.47788
701.442,66.99000,      -8.48172
704.005,67.24667,      -8.48667
706.576,67.50333,      -8.49021
709.144,67.76000,      -8.49355
711.708,68.01667,      -8.49769
714.265,68.27333,      -8.50164
716.836,68.53000,      -8.50568
719.399,68.78667,      -8.50852
721.962,69.04333,      -8.51256
724.53,69.30000,      -8.51539
727.091,69.55667,      -8.51963
729.657,69.81333,      -8.52286
732.224,70.07000,      -8.52599
734.785,70.32667,      -8.53083
737.356,70.58333,      -8.53465
739.92,70.84000,      -8.53747
742.486,71.09667,      -8.54049
745.056,71.35333,      -8.54381
747.618,71.61000,      -8.54683
750.176,71.86667,      -8.55124
752.746,72.12333,      -8.55334
755.308,72.38000,      -8.55595
757.883,72.63667,      -8.55974
760.441,72.89333,      -8.56314
763.014,73.15000,      -8.56663
765.572,73.40667,      -8.56872
768.136,73.66333,      -8.57040
770.7,73.92000,      -8.57318
773.27,74.17667,      -8.57675
775.837,74.43333,      -8.58011
778.395,74.69000,      -8.58338
780.97,74.94667,      -8.58682
783.534,75.20333,      -8.58888
786.101,75.46000,      -8.59122
788.672,75.71667,      -8.59365
791.241,75.97333,      -8.59688
793.803,76.23000,      -8.60010
796.376,76.48667,      -8.60352
798.949,76.74333,      -8.60642
799.5,76.79833,      -8.60713