Folder: biomass.carbon/data-raw/TGA (part 2)

File: B_TGA.csv
#EXPORTTYPE:                 ,DATA SINGLE
#FILE:                       ,B.ngb-st9
#FORMAT:                     ,NETZSCH5
#FTYPE:                      ,ANSI
#IDENTITY:                   ,Saras
#DECIMAL:                    ,POINT
#SEPARATOR:                  ,COMMA
#MTYPE:                      ,TG
#INSTRUMENT:                 ,NETZSCH TG 209F1 Libra
#PROJECT:                    ,IL
#DATE/TIME:                  ,10/03/2017 9:20:53 AM (UTC+11)
#CORR. FILE:                 ,
#TEMPCAL:                    ,TCALZERO.TCX
#LABORATORY:                 ,Capture Lab
#OPERATOR:                   ,NJN
#REMARK:                     ,Training run
#SAMPLE:                     ,B
#SAMPLE MASS /mg:            ,12.0508
#MATERIAL:                   ,KHCO3
#TYPE OF CRUCIBLE:           ,Al2O3
#SAMPLE CRUCIBLE MASS /mg:   ,311.0480
#REFERENCE CRUCIBLE MASS /mg:,
#M.RANGE /mg:                ,2000
#CORR. CODE:                 ,090
#RANGE:                      ,32°C/10.0(K/min)/800°C
#SEGMENT:                    ,S1/1
#SEG. 1:                     ,32°C/10.0(K/min)/800°C

##Temp./°C,Time/min,Mass loss/mg
 31.53600, 0.00000,-1.041827e-003
 32.66700, 0.25667,-5.986939e-003
 34.92800, 0.51333,-1.229152e-002
 37.87600, 0.77000,-2.194571e-002
 41.10900, 1.02667,-3.835045e-002
 44.28800, 1.28333,-5.696183e-002
 47.23600, 1.54000,-7.867746e-002
 49.93700, 1.79667,      -0.10416
 52.47300, 2.05333,      -0.13125
 54.93600, 2.31000,      -0.16061
 57.40700, 2.56667,      -0.19124
 59.91600, 2.82333,      -0.22275
 62.46900, 3.08000,      -0.25483
 65.05700, 3.33667,      -0.28606
 67.65500, 3.59333,      -0.31758
 70.24800, 3.85000,      -0.34683
 72.82900, 4.10667,      -0.37574
 75.40200, 4.36333,      -0.40243
 77.97200, 4.62000,      -0.42714
 80.53300, 4.87667,      -0.44922
 83.10000, 5.13333,      -0.46892
 85.66800, 5.39000,      -0.48661
 88.23000, 5.64667,      -0.50176
 90.81000, 5.90333,      -0.51568
 93.38300, 6.16000,      -0.52734
 95.95500, 6.41667,      -0.53657
 98.51900, 6.67333,      -0.54472
101.083, 6.93000,      -0.55024
103.652, 7.18667,      -0.55671
106.212, 7.44333,      -0.56109
108.776, 7.70000,      -0.56520
111.336, 7.95667,      -0.56856
113.903, 8.21333,      -0.57151
116.468, 8.47000,      -0.57430
119.036, 8.72667,      -0.57678
121.601, 8.98333,      -0.57974
124.17, 9.24000,      -0.58288
126.732, 9.49667,      -0.58568
129.299, 9.75333,      -0.58797
131.872,10.01000,      -0.59145
134.441,10.26667,      -0.59500
137.01,10.52333,      -0.59923
139.576,10.78000,      -0.60415
142.144,11.03667,      -0.60976
144.716,11.29333,      -0.61635
147.278,11.55000,      -0.62622
149.85,11.80667,      -0.63589
152.418,12.06333,      -0.64605
154.982,12.32000,      -0.65760
157.55,12.57667,      -0.67065
160.115,12.83333,      -0.68539
162.681,13.09000,      -0.70213
165.241,13.34667,      -0.72116
167.807,13.60333,      -0.74270
170.375,13.86000,      -0.76784
172.943,14.11667,      -0.79666
175.51,14.37333,      -0.83071
178.079,14.63000,      -0.86984
180.646,14.88667,      -0.91409
183.216,15.14333,      -0.96434
185.782,15.40000,      -1.02100
188.352,15.65667,      -1.08167
190.922,15.91333,      -1.14705
193.488,16.17000,      -1.21903
196.057,16.42667,      -1.29843
198.629,16.68333,      -1.36495
201.19,16.94000,      -1.43137
203.755,17.19667,      -1.49890
206.323,17.45333,      -1.55685
208.894,17.71000,      -1.61619
211.459,17.96667,      -1.67283
214.024,18.22333,      -1.72667
216.586,18.48000,      -1.77852
219.156,18.73667,      -1.82978
221.722,18.99333,      -1.88133
224.291,19.25000,      -1.93529
226.857,19.50667,      -1.99054
229.422,19.76333,      -2.04930
231.981,20.02000,      -2.11786
234.548,20.27667,      -2.18512
237.12,20.53333,      -2.25548
239.684,20.79000,      -2.33684
242.252,21.04667,      -2.42651
244.81,21.30333,      -2.51237
247.379,21.56000,      -2.60073
249.946,21.81667,      -2.69230
252.514,22.07333,      -2.78696
255.079,22.33000,      -2.88222
257.644,22.58667,      -2.98008
260.21,22.84333,      -3.08073
262.776,23.10000,      -3.18049
265.34,23.35667,      -3.28344
267.906,23.61333,      -3.38670
270.471,23.87000,      -3.49385
273.04,24.12667,      -3.60069
275.603,24.38333,      -3.71004
278.168,24.64000,      -3.82298
280.737,24.89667,      -3.93752
283.301,25.15333,      -4.05525
285.864,25.41000,      -4.17738
288.435,25.66667,      -4.30691
290.998,25.92333,      -4.44183
293.561,26.18000,      -4.58535
296.128,26.43667,      -4.74106
298.701,26.69333,      -4.90997
301.272,26.95000,      -5.09047
303.831,27.20667,      -5.28327
306.396,27.46333,      -5.48937
308.962,27.72000,      -5.69808
311.533,27.97667,      -5.90538
314.095,28.23333,      -6.10668
316.662,28.49000,      -6.29718
319.226,28.74667,      -6.46649
321.784,29.00333,      -6.61139
324.349,29.26000,      -6.73389
326.917,29.51667,      -6.83079
329.479,29.77333,      -6.90979
332.048,30.03000,      -6.96399
334.607,30.28667,      -7.02178
337.176,30.54333,      -7.07148
339.741,30.80000,      -7.11717
342.305,31.05667,      -7.15836
344.873,31.31333,      -7.19785
347.443,31.57000,      -7.23464
350.006,31.82667,      -7.26842
352.573,32.08333,      -7.30110
355.147,32.34000,      -7.33338
357.708,32.59667,      -7.36356
360.267,32.85333,      -7.39303
362.834,33.11000,      -7.42230
365.398,33.36667,      -7.45007
367.964,33.62333,      -7.47763
370.529,33.88000,      -7.50479
373.095,34.13667,      -7.53075
375.663,34.39333,      -7.55640
378.225,34.65000,      -7.58105
380.796,34.90667,      -7.60599
383.365,35.16333,      -7.63064
385.925,35.42000,      -7.65357
388.486,35.67667,      -7.67760
391.055,35.93333,      -7.70123
393.616,36.19000,      -7.72415
396.18,36.44667,      -7.74647
398.744,36.70333,      -7.76938
401.306,36.96000,      -7.79128
403.873,37.21667,      -7.81288
406.433,37.47333,      -7.83548
409.001,37.73000,      -7.85658
411.565,37.98667,      -7.87737
414.131,38.24333,      -7.89816
416.699,38.50000,      -7.91854
419.264,38.75667,      -7.93933
421.828,39.01333,      -7.95991
424.392,39.27000,      -7.97949
426.956,39.52667,      -7.99866
429.52,39.78333,      -8.01773
432.082,40.04000,      -8.03740
434.646,40.29667,      -8.05547
437.211,40.55333,      -8.07403
439.776,40.81000,      -8.09199
442.348,41.06667,      -8.10924
444.915,41.32333,      -8.12599
447.473,41.58000,      -8.14265
450.038,41.83667,      -8.15909
452.597,42.09333,      -8.17464
455.163,42.35000,      -8.19028
457.733,42.60667,      -8.20531
460.297,42.86333,      -8.21985
462.861,43.12000,      -8.23348
465.428,43.37667,      -8.24791
467.995,43.63333,      -8.26133
470.566,43.89000,      -8.27445
473.124,44.14667,      -8.28608
475.688,44.40333,      -8.29789
478.253,44.66000,      -8.31011
480.817,44.91667,      -8.32112
483.367,45.17333,      -8.33304
485.943,45.43000,      -8.34263
488.511,45.68667,      -8.35273
491.071,45.94333,      -8.36253
493.639,46.20000,      -8.37223
496.206,46.45667,      -8.38142
498.764,46.71333,      -8.39042
501.331,46.97000,      -8.40010
503.897,47.22667,      -8.40808
506.458,47.48333,      -8.41717
509.024,47.74000,      -8.42485
511.589,47.99667,      -8.43283
514.158,48.25333,      -8.44040
516.722,48.51000,      -8.44788
519.285,48.76667,      -8.45505
521.853,49.02333,      -8.46142
524.415,49.28000,      -8.46789
526.979,49.53667,      -8.47486
529.545,49.79333,      -8.48082
532.109,50.05000,      -8.48958
534.677,50.30667,      -8.49474
537.245,50.56333,      -8.50059
539.806,50.82000,      -8.50655
542.374,51.07667,      -8.51239
544.94,51.33333,      -8.51844
547.502,51.59000,      -8.52389
550.067,51.84667,      -8.52922
552.636,52.10333,      -8.53516
555.203,52.36000,      -8.54069
557.771,52.61667,      -8.54632
560.341,52.87333,      -8.55075
562.911,53.13000,      -8.55517
565.471,53.38667,      -8.56030
568.036,53.64333,      -8.56551
570.605,53.90000,      -8.57072
573.168,54.15667,      -8.57563
575.734,54.41333,      -8.58114
578.303,54.67000,      -8.58683
580.863,54.92667,      -8.59153
583.434,55.18333,      -8.59632
585.996,55.44000,      -8.60081
588.564,55.69667,      -8.60589
591.134,55.95333,      -8.61057
593.7,56.21000,      -8.61475
596.263,56.46667,      -8.61962
598.835,56.72333,      -8.62448
601.399,56.98000,      -8.62885
603.967,57.23667,      -8.63290
606.535,57.49333,      -8.63705
609.098,57.75000,      -8.64160
611.661,58.00667,      -8.64575
614.227,58.26333,      -8.65019
616.793,58.52000,      -8.65362
619.356,58.77667,      -8.65786
621.922,59.03333,      -8.66218
624.492,59.29000,      -8.66611
627.058,59.54667,      -8.66963
629.622,59.80333,      -8.67295
632.191,60.06000,      -8.67695
634.758,60.31667,      -8.68077
637.317,60.57333,      -8.68438
639.883,60.83000,      -8.68848
642.443,61.08667,      -8.69258
645.009,61.34333,      -8.69587
647.575,61.60000,      -8.69917
650.143,61.85667,      -8.70295
652.712,62.11333,      -8.70614
655.276,62.37000,      -8.71002
657.836,62.62667,      -8.71341
660.407,62.88333,      -8.71768
662.975,63.14000,      -8.72126
665.543,63.39667,      -8.72433
668.109,63.65333,      -8.72790
670.671,63.91000,      -8.73117
673.244,64.16667,      -8.73483
675.801,64.42333,      -8.73830
678.366,64.68000,      -8.74216
680.934,64.93667,      -8.74542
683.502,65.19333,      -8.74857
686.059,65.45000,      -8.75173
688.627,65.70667,      -8.75548
691.197,65.96333,      -8.75873
693.762,66.22000,      -8.76198
696.335,66.47667,      -8.76512
698.897,66.73333,      -8.76867
701.469,66.99000,      -8.77141
704.038,67.24667,      -8.77505
706.597,67.50333,      -8.77780
709.164,67.76000,      -8.78104
711.727,68.01667,      -8.78439
714.293,68.27333,      -8.78763
716.864,68.53000,      -8.79167
719.429,68.78667,      -8.79481
722.002,69.04333,      -8.79864
724.559,69.30000,      -8.80199
727.125,69.55667,      -8.80562
729.687,69.81333,      -8.80946
732.258,70.07000,      -8.81348
734.824,70.32667,      -8.81701
737.398,70.58333,      -8.81953
739.955,70.84000,      -8.82286
742.525,71.09667,      -8.82708
745.088,71.35333,      -8.83060
747.652,71.61000,      -8.83511
750.224,71.86667,      -8.83912
752.785,72.12333,      -8.84223
755.355,72.38000,      -8.84643
757.916,72.63667,      -8.85023
760.488,72.89333,      -8.85393
763.057,73.15000,      -8.85731
765.623,73.40667,      -8.86090
768.185,73.66333,      -8.86589
770.748,73.92000,      -8.87036
773.32,74.17667,      -8.87433
775.88,74.43333,      -8.87840
778.444,74.69000,      -8.88276
781.011,74.94667,      -8.88701
783.585,75.20333,      -8.89116
786.152,75.46000,      -8.89550
788.715,75.71667,      -8.90024
791.28,75.97333,      -8.90477
793.849,76.23000,      -8.90989
796.422,76.48667,      -8.91560
799.005,76.74333,      -8.91890
799.391,76.78167,      -8.91956

File: BB_TGA.csv
#EXPORTTYPE:                 ,DATA SINGLE
#FILE:                       ,BB.ngb-st9
#FORMAT:                     ,NETZSCH5
#FTYPE:                      ,ANSI
#IDENTITY:                   ,Saras
#DECIMAL:                    ,POINT
#SEPARATOR:                  ,COMMA
#MTYPE:                      ,TG
#INSTRUMENT:                 ,NETZSCH TG 209F1 Libra
#PROJECT:                    ,IL
#DATE/TIME:                  ,13/03/2017 9:42:59 AM (UTC+11)
#CORR. FILE:                 ,
#TEMPCAL:                    ,TCALZERO.TCX
#LABORATORY:                 ,Capture Lab
#OPERATOR:                   ,NJN
#REMARK:                     ,Training run
#SAMPLE:                     ,BB
#SAMPLE MASS /mg:            ,16.1549
#MATERIAL:                   ,KHCO3
#TYPE OF CRUCIBLE:           ,Al2O3
#SAMPLE CRUCIBLE MASS /mg:   ,311.0814
#REFERENCE CRUCIBLE MASS /mg:,
#M.RANGE /mg:                ,2000
#CORR. CODE:                 ,090
#RANGE:                      ,32°C/10.0(K/min)/800°C
#SEGMENT:                    ,S1/1
#SEG. 1:                     ,32°C/10.0(K/min)/800°C

##Temp./°C,Time/min,Mass loss/mg
 31.97300, 0.00000,-1.997354e-003
 33.03900, 0.25667,-5.636908e-004
 35.14800, 0.51333,-1.399620e-003
 37.92800, 0.77000,-3.309627e-003
 41.05800, 1.02667,-6.136477e-003
 44.20000, 1.28333,-1.256003e-002
 47.16600, 1.54000,-2.357497e-002
 49.90600, 1.79667,-3.431356e-002
 52.47200, 2.05333,-4.745896e-002
 54.95300, 2.31000,-6.367003e-002
 57.42600, 2.56667,-8.152723e-002
 59.92100, 2.82333,      -0.10230
 62.46800, 3.08000,      -0.12473
 65.04300, 3.33667,      -0.14943
 67.63500, 3.59333,      -0.17706
 70.23000, 3.85000,      -0.20582
 72.81000, 4.10667,      -0.23503
 75.38300, 4.36333,      -0.26593
 77.95600, 4.62000,      -0.29665
 80.52600, 4.87667,      -0.32715
 83.09400, 5.13333,      -0.35653
 85.66700, 5.39000,      -0.38453
 88.24600, 5.64667,      -0.41141
 90.81600, 5.90333,      -0.43688
 93.38900, 6.16000,      -0.45953
 95.96100, 6.41667,      -0.48090
 98.52800, 6.67333,      -0.50113
101.099, 6.93000,      -0.51886
103.663, 7.18667,      -0.53518
106.232, 7.44333,      -0.55002
108.794, 7.70000,      -0.56350
111.354, 7.95667,      -0.57575
113.92, 8.21333,      -0.58670
116.481, 8.47000,      -0.59730
119.049, 8.72667,      -0.60758
121.613, 8.98333,      -0.61744
124.173, 9.24000,      -0.62876
126.739, 9.49667,      -0.63898
129.306, 9.75333,      -0.65027
131.875,10.01000,      -0.66165
134.444,10.26667,      -0.67370
137.016,10.52333,      -0.68594
139.582,10.78000,      -0.69914
142.155,11.03667,      -0.71306
144.725,11.29333,      -0.72714
147.29,11.55000,      -0.74142
149.861,11.80667,      -0.75549
152.434,12.06333,      -0.76935
155.002,12.32000,      -0.78380
157.567,12.57667,      -0.79855
160.124,12.83333,      -0.81449
162.688,13.09000,      -0.83072
165.251,13.34667,      -0.84846
167.822,13.60333,      -0.86700
170.386,13.86000,      -0.88573
172.954,14.11667,      -0.90587
175.523,14.37333,      -0.92641
178.089,14.63000,      -0.94754
180.656,14.88667,      -0.96918
183.222,15.14333,      -0.99244
185.789,15.40000,      -1.01620
188.355,15.65667,      -1.04106
190.929,15.91333,      -1.06635
193.497,16.17000,      -1.09303
196.065,16.42667,      -1.12043
198.629,16.68333,      -1.14894
201.194,16.94000,      -1.17957
203.76,17.19667,      -1.21141
206.323,17.45333,      -1.24555
208.893,17.71000,      -1.28088
211.463,17.96667,      -1.31923
214.026,18.22333,      -1.36188
216.591,18.48000,      -1.40752
219.159,18.73667,      -1.45627
221.726,18.99333,      -1.50963
224.292,19.25000,      -1.56828
226.856,19.50667,      -1.63084
229.425,19.76333,      -1.70410
231.995,20.02000,      -1.77586
234.561,20.27667,      -1.86332
237.118,20.53333,      -1.94468
239.688,20.79000,      -2.03095
242.26,21.04667,      -2.12341
244.821,21.30333,      -2.21857
247.391,21.56000,      -2.31833
249.954,21.81667,      -2.42359
252.517,22.07333,      -2.53526
255.082,22.33000,      -2.65112
257.65,22.58667,      -2.77128
260.219,22.84333,      -2.89703
262.788,23.10000,      -3.02519
265.352,23.35667,      -3.15604
267.919,23.61333,      -3.28820
270.48,23.87000,      -3.42295
273.044,24.12667,      -3.55579
275.612,24.38333,      -3.68774
278.176,24.64000,      -3.81888
280.746,24.89667,      -3.95122
283.309,25.15333,      -4.07945
285.874,25.41000,      -4.20668
288.435,25.66667,      -4.33261
291.007,25.92333,      -4.45833
293.576,26.18000,      -4.58215
296.143,26.43667,      -4.70506
298.7,26.69333,      -4.82927
301.261,26.95000,      -4.95237
303.828,27.20667,      -5.07557
306.393,27.46333,      -5.20087
308.963,27.72000,      -5.33048
311.531,27.97667,      -5.46008
314.092,28.23333,      -5.59868
316.662,28.49000,      -5.73908
319.228,28.74667,      -5.88959
321.798,29.00333,      -6.04509
324.358,29.26000,      -6.20779
326.922,29.51667,      -6.37989
329.488,29.77333,      -6.55549
332.056,30.03000,      -6.73468
334.621,30.28667,      -6.91338
337.189,30.54333,      -7.09247
339.756,30.80000,      -7.26147
342.323,31.05667,      -7.42136
344.887,31.31333,      -7.56705
347.444,31.57000,      -7.70084
350.013,31.82667,      -7.81852
352.577,32.08333,      -7.92220
355.143,32.34000,      -8.01648
357.708,32.59667,      -8.10056
360.274,32.85333,      -8.17173
362.84,33.11000,      -8.24200
365.404,33.36667,      -8.32227
367.969,33.62333,      -8.38743
370.536,33.88000,      -8.45439
373.097,34.13667,      -8.52175
375.663,34.39333,      -8.58970
378.226,34.65000,      -8.65745
380.79,34.90667,      -8.73710
383.356,35.16333,      -8.80284
385.921,35.42000,      -8.86917
388.489,35.67667,      -8.93640
391.054,35.93333,      -9.00443
393.62,36.19000,      -9.08235
396.184,36.44667,      -9.14917
398.741,36.70333,      -9.21588
401.304,36.96000,      -9.28068
403.871,37.21667,      -9.34618
406.436,37.47333,      -9.40778
409.001,37.73000,      -9.47068
411.567,37.98667,      -9.53047
414.131,38.24333,      -9.58906
416.703,38.50000,      -9.64504
419.266,38.75667,      -9.69983
421.829,39.01333,      -9.75431
424.397,39.27000,      -9.80718
426.965,39.52667,      -9.85856
429.53,39.78333,      -9.90893
432.094,40.04000,      -9.95890
434.654,40.29667,     -10.00626
437.22,40.55333,     -10.05273
439.784,40.81000,     -10.09878
442.349,41.06667,     -10.14164
444.909,41.32333,     -10.18350
447.472,41.58000,     -10.22405
450.038,41.83667,     -10.26339
452.604,42.09333,     -10.30114
455.172,42.35000,     -10.33668
457.734,42.60667,     -10.37221
460.296,42.86333,     -10.40655
462.862,43.12000,     -10.43998
465.431,43.37667,     -10.47231
467.994,43.63333,     -10.50334
470.553,43.89000,     -10.53526
473.118,44.14667,     -10.56628
475.682,44.40333,     -10.59589
478.246,44.66000,     -10.62421
480.81,44.91667,     -10.65032
483.376,45.17333,     -10.67473
485.933,45.43000,     -10.69744
488.503,45.68667,     -10.71933
491.071,45.94333,     -10.73943
493.639,46.20000,     -10.75833
496.202,46.45667,     -10.77692
498.761,46.71333,     -10.79481
501.328,46.97000,     -10.81180
503.893,47.22667,     -10.82769
506.453,47.48333,     -10.84317
509.025,47.74000,     -10.85865
511.587,47.99667,     -10.87283
514.153,48.25333,     -10.88660
516.725,48.51000,     -10.90157
519.293,48.76667,     -10.91415
521.854,49.02333,     -10.92622
524.42,49.28000,     -10.93949
526.988,49.53667,     -10.95185
529.551,49.79333,     -10.96382
532.121,50.05000,     -10.97628
534.688,50.30667,     -10.98694
537.249,50.56333,     -10.99919
539.817,50.82000,     -11.01024
542.384,51.07667,     -11.02129
544.943,51.33333,     -11.03304
547.511,51.59000,     -11.04428
550.075,51.84667,     -11.05522
552.643,52.10333,     -11.06556
555.207,52.36000,     -11.07639
557.779,52.61667,     -11.08692
560.348,52.87333,     -11.09665
562.907,53.13000,     -11.10688
565.472,53.38667,     -11.11709
568.038,53.64333,     -11.12701
570.603,53.90000,     -11.13692
573.17,54.15667,     -11.14823
575.736,54.41333,     -11.15823
578.306,54.67000,     -11.16683
580.866,54.92667,     -11.17743
583.44,55.18333,     -11.18732
586.003,55.44000,     -11.19691
588.571,55.69667,     -11.20689
591.137,55.95333,     -11.21557
593.711,56.21000,     -11.22594
596.272,56.46667,     -11.23522
598.835,56.72333,     -11.24509
601.407,56.98000,     -11.25564
603.974,57.23667,     -11.26550
606.537,57.49333,     -11.27576
609.098,57.75000,     -11.28650
611.662,58.00667,     -11.29745
614.227,58.26333,     -11.30849
616.795,58.52000,     -11.31972
619.363,58.77667,     -11.33205
621.922,59.03333,     -11.34349
624.493,59.29000,     -11.35521
627.069,59.54667,     -11.36712
629.63,59.80333,     -11.37994
632.193,60.06000,     -11.39316
634.757,60.31667,     -11.40727
637.319,60.57333,     -11.41937
639.889,60.83000,     -11.43387
642.447,61.08667,     -11.44848
645.012,61.34333,     -11.46327
647.579,61.60000,     -11.47936
650.144,61.85667,     -11.49465
652.711,62.11333,     -11.50884
655.271,62.37000,     -11.52343
657.837,62.62667,     -11.53901
660.41,62.88333,     -11.55348
662.967,63.14000,     -11.56716
665.535,63.39667,     -11.58233
668.098,63.65333,     -11.59530
670.661,63.91000,     -11.60637
673.231,64.16667,     -11.61724
675.796,64.42333,     -11.62660
678.365,64.68000,     -11.63586
680.933,64.93667,     -11.64302
683.499,65.19333,     -11.65378
686.066,65.45000,     -11.66133
688.631,65.70667,     -11.66988
691.193,65.96333,     -11.67644
693.759,66.22000,     -11.68558
696.329,66.47667,     -11.69392
698.896,66.73333,     -11.70027
701.457,66.99000,     -11.70642
704.015,67.24667,     -11.71586
706.586,67.50333,     -11.72350
709.148,67.76000,     -11.73075
711.718,68.01667,     -11.73889
714.276,68.27333,     -11.74564
716.852,68.53000,     -11.75257
719.417,68.78667,     -11.75881
721.979,69.04333,     -11.76605
724.544,69.30000,     -11.77519
727.117,69.55667,     -11.78072
729.687,69.81333,     -11.78815
732.243,70.07000,     -11.79449
734.81,70.32667,     -11.80211
737.373,70.58333,     -11.80885
739.942,70.84000,     -11.81566
742.518,71.09667,     -11.82288
745.083,71.35333,     -11.82880
747.65,71.61000,     -11.83671
750.216,71.86667,     -11.84292
752.78,72.12333,     -11.84923
755.346,72.38000,     -11.85614
757.912,72.63667,     -11.86334
760.475,72.89333,     -11.86883
763.03,73.15000,     -11.87523
765.596,73.40667,     -11.88151
768.165,73.66333,     -11.88669
770.73,73.92000,     -11.89207
773.292,74.17667,     -11.89974
775.864,74.43333,     -11.90610
778.43,74.69000,     -11.90986
780.997,74.94667,     -11.91642
783.555,75.20333,     -11.92457
786.121,75.46000,     -11.92971
788.695,75.71667,     -11.93534
791.257,75.97333,     -11.94158
793.832,76.23000,     -11.94779
796.401,76.48667,     -11.95331
798.972,76.74333,     -11.95811
799.524,76.79833,     -11.95942