Folder: biomass.carbon/data-raw/TGA (part 4)

File: cellulose.csv
#EXPORTTYPE:                 ,DATA SINGLE
#FILE:                       ,cellulose.ngb-st9
#FORMAT:                     ,NETZSCH5
#FTYPE:                      ,ANSI
#IDENTITY:                   ,Saras
#DECIMAL:                    ,POINT
#SEPARATOR:                  ,COMMA
#MTYPE:                      ,TG
#INSTRUMENT:                 ,NETZSCH TG 209F1 Libra
#PROJECT:                    ,IL
#DATE/TIME:                  ,30/05/2017 2:08:57 PM (UTC+10)
#CORR. FILE:                 ,
#TEMPCAL:                    ,TCALZERO.TCX
#LABORATORY:                 ,Mulvaney
#OPERATOR:                   ,JGC
#REMARK:                     ,Training run
#SAMPLE:                     ,cellulose
#SAMPLE MASS /mg:            ,17.1559
#MATERIAL:                   ,CZTSE
#TYPE OF CRUCIBLE:           ,Al2O3
#SAMPLE CRUCIBLE MASS /mg:   ,312.1469
#REFERENCE CRUCIBLE MASS /mg:,
#M.RANGE /mg:                ,2000
#CORR. CODE:                 ,090
#RANGE:                      ,32°C/10.0(K/min)/800°C
#SEGMENT:                    ,S1/1
#SEG. 1:                     ,32°C/10.0(K/min)/800°C

##Temp./°C,Time/min,Mass loss/mg
 31.59900, 0.00000,-1.717149e-003
 32.67900, 0.25667,-5.404256e-003
 34.88600, 0.51333,-1.289551e-002
 37.82500, 0.77000,-2.589610e-002
 41.07000, 1.02667,-4.560955e-002
 44.27300, 1.28333,-7.147786e-002
 47.23500, 1.54000,      -0.10164
 49.93700, 1.79667,      -0.13995
 52.45800, 2.05333,      -0.18240
 54.90600, 2.31000,      -0.23115
 57.36600, 2.56667,      -0.28459
 59.87000, 2.82333,      -0.34389
 62.42300, 3.08000,      -0.40920
 65.01200, 3.33667,      -0.48276
 67.60900, 3.59333,      -0.56378
 70.19900, 3.85000,      -0.64541
 72.78500, 4.10667,      -0.73174
 75.37300, 4.36333,      -0.80549
 77.94900, 4.62000,      -0.89516
 80.52300, 4.87667,      -0.97546
 83.09200, 5.13333,      -1.06011
 85.67700, 5.39000,      -1.13023
 88.25400, 5.64667,      -1.20330
 90.82600, 5.90333,      -1.27377
 93.40100, 6.16000,      -1.33934
 95.97900, 6.41667,      -1.40130
 98.54600, 6.67333,      -1.45661
101.094, 6.93000,      -1.50970
103.669, 7.18667,      -1.55972
106.237, 7.44333,      -1.60632
108.804, 7.70000,      -1.64969
111.368, 7.95667,      -1.68716
113.928, 8.21333,      -1.72689
116.494, 8.47000,      -1.75960
119.051, 8.72667,      -1.79576
121.62, 8.98333,      -1.82165
124.182, 9.24000,      -1.85306
126.743, 9.49667,      -1.87917
129.313, 9.75333,      -1.90518
131.876,10.01000,      -1.92924
134.446,10.26667,      -1.95180
137.018,10.52333,      -1.97024
139.585,10.78000,      -1.99124
142.153,11.03667,      -2.00965
144.721,11.29333,      -2.02444
147.29,11.55000,      -2.03902
149.856,11.80667,      -2.05469
152.422,12.06333,      -2.06794
154.988,12.32000,      -2.07830
157.554,12.57667,      -2.09025
160.116,12.83333,      -2.09909
162.681,13.09000,      -2.10693
165.253,13.34667,      -2.11307
167.821,13.60333,      -2.12000
170.381,13.86000,      -2.12853
172.945,14.11667,      -2.13346
175.512,14.37333,      -2.13890
178.083,14.63000,      -2.14284
180.656,14.88667,      -2.14669
183.214,15.14333,      -2.15383
185.781,15.40000,      -2.15680
188.349,15.65667,      -2.16017
190.918,15.91333,      -2.16304
193.477,16.17000,      -2.16833
196.047,16.42667,      -2.17173
198.617,16.68333,      -2.17495
201.177,16.94000,      -2.18367
203.746,17.19667,      -2.18791
206.312,17.45333,      -2.19354
208.881,17.71000,      -2.19929
211.454,17.96667,      -2.20563
214.019,18.22333,      -2.21477
216.581,18.48000,      -2.22642
219.144,18.73667,      -2.23737
221.714,18.99333,      -2.24963
224.284,19.25000,      -2.26519
226.851,19.50667,      -2.27964
229.423,19.76333,      -2.29960
231.987,20.02000,      -2.32366
234.549,20.27667,      -2.35092
237.121,20.53333,      -2.38298
239.687,20.79000,      -2.42295
242.319,21.04667,      -2.46889
244.828,21.30333,      -2.52515
247.378,21.56000,      -2.59993
249.952,21.81667,      -2.69480
252.528,22.07333,      -2.79896
255.104,22.33000,      -2.92482
257.685,22.58667,      -3.07778
260.264,22.84333,      -3.26303
262.842,23.10000,      -3.48949
265.417,23.35667,      -3.75674
267.989,23.61333,      -4.08349
270.577,23.87000,      -4.45824
273.155,24.12667,      -4.88868
275.722,24.38333,      -5.35303
278.263,24.64000,      -5.84117
280.793,24.89667,      -6.30441
283.323,25.15333,      -6.74095
285.858,25.41000,      -7.14948
288.425,25.66667,      -7.53211
291.006,25.92333,      -7.93573
293.575,26.18000,      -8.34735
296.032,26.43667,      -8.61327
298.511,26.69333,      -8.73829
301.076,26.95000,      -8.80509
303.688,27.20667,      -8.85948
306.301,27.46333,      -8.90138
308.906,27.72000,      -8.93638
311.49,27.97667,      -8.96338
314.065,28.23333,      -8.98748
316.634,28.49000,      -9.01099
319.197,28.74667,      -9.03299
321.765,29.00333,      -9.05269
324.337,29.26000,      -9.07339
326.904,29.51667,      -9.09659
329.471,29.77333,      -9.11789
332.041,30.03000,      -9.13958
334.614,30.28667,      -9.16158
337.177,30.54333,      -9.18338
339.739,30.80000,      -9.20647
342.31,31.05667,      -9.23076
344.872,31.31333,      -9.25445
347.443,31.57000,      -9.27873
350.013,31.82667,      -9.30172
352.579,32.08333,      -9.32810
355.142,32.34000,      -9.35438
357.715,32.59667,      -9.37585
360.279,32.85333,      -9.40053
362.841,33.11000,      -9.42690
365.409,33.36667,      -9.44977
367.967,33.62333,      -9.47514
370.54,33.88000,      -9.50019
373.093,34.13667,      -9.52656
375.659,34.39333,      -9.55121
378.227,34.65000,      -9.57705
380.79,34.90667,      -9.60440
383.359,35.16333,      -9.62813
385.922,35.42000,      -9.65607
388.483,35.67667,      -9.68310
391.049,35.93333,      -9.70603
393.608,36.19000,      -9.73405
396.176,36.44667,      -9.75966
398.74,36.70333,      -9.78468
401.301,36.96000,      -9.81148
403.856,37.21667,      -9.83979
406.429,37.47333,      -9.86118
408.983,37.73000,      -9.89208
411.554,37.98667,      -9.91127
414.118,38.24333,      -9.93736
416.675,38.50000,      -9.96355
419.239,38.75667,      -9.98593
421.802,39.01333,     -10.00851
424.36,39.27000,     -10.03170
426.911,39.52667,     -10.05608
429.46,39.78333,     -10.07475
432.005,40.04000,     -10.09872
434.584,40.29667,     -10.11707
437.17,40.55333,     -10.13443
439.75,40.81000,     -10.15588
442.326,41.06667,     -10.17174
444.895,41.32333,     -10.19280
447.463,41.58000,     -10.21154
450.028,41.83667,     -10.23289
452.598,42.09333,     -10.24983
455.167,42.35000,     -10.26538
457.722,42.60667,     -10.29372
460.297,42.86333,     -10.30504
462.865,43.12000,     -10.32688
465.426,43.37667,     -10.34681
467.994,43.63333,     -10.36384
470.565,43.89000,     -10.38066
473.132,44.14667,     -10.39657
475.691,44.40333,     -10.41670
478.253,44.66000,     -10.43342
480.825,44.91667,     -10.44162
483.38,45.17333,     -10.46003
485.94,45.43000,     -10.47564
488.51,45.68667,     -10.48643
491.081,45.94333,     -10.49823
493.646,46.20000,     -10.50943
496.215,46.45667,     -10.51861
498.772,46.71333,     -10.53192
501.343,46.97000,     -10.53859
503.914,47.22667,     -10.54808
506.481,47.48333,     -10.55446
509.044,47.74000,     -10.56555
511.605,47.99667,     -10.57412
514.171,48.25333,     -10.58290
516.742,48.51000,     -10.58697
519.314,48.76667,     -10.59244
521.876,49.02333,     -10.60232
524.445,49.28000,     -10.60748
527.013,49.53667,     -10.61015
529.584,49.79333,     -10.61181
532.137,50.05000,     -10.62578
534.704,50.30667,     -10.63033
537.276,50.56333,     -10.63208
539.842,50.82000,     -10.63644
542.411,51.07667,     -10.64009
544.974,51.33333,     -10.64203
547.534,51.59000,     -10.64709
550.098,51.84667,     -10.65272
552.672,52.10333,     -10.65525
555.23,52.36000,     -10.66129
557.803,52.61667,     -10.66132
560.367,52.87333,     -10.66415
562.922,53.13000,     -10.66697
565.482,53.38667,     -10.67030
568.053,53.64333,     -10.67250
570.608,53.90000,     -10.67693
573.181,54.15667,     -10.67982
575.745,54.41333,     -10.68064
578.311,54.67000,     -10.68553
580.883,54.92667,     -10.68652
583.45,55.18333,     -10.68772
586.009,55.44000,     -10.69481
588.579,55.69667,     -10.69609
591.146,55.95333,     -10.69947
593.724,56.21000,     -10.70074
596.299,56.46667,     -10.70321
598.864,56.72333,     -10.70548
601.424,56.98000,     -10.70835
603.993,57.23667,     -10.71279
606.564,57.49333,     -10.71525
609.133,57.75000,     -10.71650
611.691,58.00667,     -10.72285
614.255,58.26333,     -10.72648
616.816,58.52000,     -10.73062
619.382,58.77667,     -10.73295
621.944,59.03333,     -10.73658
624.508,59.29000,     -10.74380
627.076,59.54667,     -10.74462
629.631,59.80333,     -10.75325
632.196,60.06000,     -10.76236
634.764,60.31667,     -10.76316
637.326,60.57333,     -10.77647
639.897,60.83000,     -10.77997
642.466,61.08667,     -10.78197
645.038,61.34333,     -10.78626
647.588,61.60000,     -10.79557
650.14,61.85667,     -10.80766
652.706,62.11333,     -10.81665
655.261,62.37000,     -10.83003
657.828,62.62667,     -10.83541
660.387,62.88333,     -10.85219
662.953,63.14000,     -10.86047
665.506,63.39667,     -10.87554
668.082,63.65333,     -10.88990
670.638,63.91000,     -10.90758
673.214,64.16667,     -10.92164
675.779,64.42333,     -10.93511
678.339,64.68000,     -10.95267
680.905,64.93667,     -10.97043
683.468,65.19333,     -10.98908
686.032,65.45000,     -11.00594
688.6,65.70667,     -11.02489
691.162,65.96333,     -11.04734
693.731,66.22000,     -11.06489
696.299,66.47667,     -11.08113
698.863,66.73333,     -11.10618
701.436,66.99000,     -11.11642
703.971,67.24667,     -11.14318
706.545,67.50333,     -11.15882
709.1,67.76000,     -11.18518
711.682,68.01667,     -11.20620
714.245,68.27333,     -11.22754
716.825,68.53000,     -11.24608
719.387,68.78667,     -11.26602
721.958,69.04333,     -11.28886
724.52,69.30000,     -11.31060
727.086,69.55667,     -11.32913
729.657,69.81333,     -11.35156
732.223,70.07000,     -11.37359
734.785,70.32667,     -11.39332
737.348,70.58333,     -11.41655
739.914,70.84000,     -11.43917
742.484,71.09667,     -11.45289
745.044,71.35333,     -11.48171
747.613,71.61000,     -11.50263
750.173,71.86667,     -11.52624
752.737,72.12333,     -11.54905
755.297,72.38000,     -11.57145
757.868,72.63667,     -11.59285
760.433,72.89333,     -11.61515
762.994,73.15000,     -11.63664
765.552,73.40667,     -11.66003
768.119,73.66333,     -11.68311
770.684,73.92000,     -11.70588
773.249,74.17667,     -11.72575
775.81,74.43333,     -11.74562
778.384,74.69000,     -11.76478
780.947,74.94667,     -11.78433
783.513,75.20333,     -11.80298
786.081,75.46000,     -11.81612
788.644,75.71667,     -11.83416
791.217,75.97333,     -11.85439
793.786,76.23000,     -11.87121
796.359,76.48667,     -11.88652
798.934,76.74333,     -11.90033
799.487,76.79833,     -11.90353

File: DD_TGA.csv
#EXPORTTYPE:                 ,DATA SINGLE
#FILE:                       ,DD.ngb-st9
#FORMAT:                     ,NETZSCH5
#FTYPE:                      ,ANSI
#IDENTITY:                   ,Saras
#DECIMAL:                    ,POINT
#SEPARATOR:                  ,COMMA
#MTYPE:                      ,TG
#INSTRUMENT:                 ,NETZSCH TG 209F1 Libra
#PROJECT:                    ,IL
#DATE/TIME:                  ,13/03/2017 2:11:08 PM (UTC+11)
#CORR. FILE:                 ,
#TEMPCAL:                    ,TCALZERO.TCX
#LABORATORY:                 ,Capture Lab
#OPERATOR:                   ,NJN
#REMARK:                     ,Training run
#SAMPLE:                     ,DD
#SAMPLE MASS /mg:            ,16.6699
#MATERIAL:                   ,KHCO3
#TYPE OF CRUCIBLE:           ,Al2O3
#SAMPLE CRUCIBLE MASS /mg:   ,311.7529
#REFERENCE CRUCIBLE MASS /mg:,
#M.RANGE /mg:                ,2000
#CORR. CODE:                 ,090
#RANGE:                      ,32°C/10.0(K/min)/800°C
#SEGMENT:                    ,S1/1
#SEG. 1:                     ,32°C/10.0(K/min)/800°C

##Temp./°C,Time/min,Mass loss/mg
 31.50900, 0.00000,-1.310501e-003
 32.65300, 0.25667,-7.813027e-003
 34.94500, 0.51333,-1.811383e-002
 37.91000, 0.77000,-3.480686e-002
 41.14300, 1.02667,-5.426598e-002
 44.30800, 1.28333,-7.913663e-002
 47.24500, 1.54000,      -0.10925
 49.93900, 1.79667,      -0.14322
 52.47100, 2.05333,      -0.18072
 54.93500, 2.31000,      -0.22081
 57.41400, 2.56667,      -0.26406
 59.92800, 2.82333,      -0.30877
 62.48100, 3.08000,      -0.35664
 65.06500, 3.33667,      -0.40566
 67.65900, 3.59333,      -0.45587
 70.25400, 3.85000,      -0.50561
 72.84000, 4.10667,      -0.55385
 75.41500, 4.36333,      -0.60014
 77.98500, 4.62000,      -0.64333
 80.56100, 4.87667,      -0.68355
 83.13000, 5.13333,      -0.72083
 85.69700, 5.39000,      -0.75550
 88.27100, 5.64667,      -0.78639
 90.84500, 5.90333,      -0.81396
 93.41400, 6.16000,      -0.83892
 95.98500, 6.41667,      -0.86017
 98.54800, 6.67333,      -0.87862
101.114, 6.93000,      -0.89463
103.676, 7.18667,      -0.90968
106.242, 7.44333,      -0.92121
108.804, 7.70000,      -0.93199
111.37, 7.95667,      -0.94016
113.929, 8.21333,      -0.94668
116.494, 8.47000,      -0.95359
119.063, 8.72667,      -0.95998
121.622, 8.98333,      -0.96654
124.193, 9.24000,      -0.97268
126.757, 9.49667,      -0.97898
129.317, 9.75333,      -0.98576
131.887,10.01000,      -0.99554
134.45,10.26667,      -1.00278
137.026,10.52333,      -1.01263
139.594,10.78000,      -1.02385
142.162,11.03667,      -1.03356
144.733,11.29333,      -1.04585
147.297,11.55000,      -1.06272
149.865,11.80667,      -1.07819
152.431,12.06333,      -1.09685
154.994,12.32000,      -1.11770
157.566,12.57667,      -1.13835
160.128,12.83333,      -1.16179
162.692,13.09000,      -1.18622
165.256,13.34667,      -1.21156
167.827,13.60333,      -1.23740
170.399,13.86000,      -1.26273
172.964,14.11667,      -1.28786
175.532,14.37333,      -1.31440
178.101,14.63000,      -1.34014
180.668,14.88667,      -1.36738
183.231,15.14333,      -1.39324
185.799,15.40000,      -1.42199
188.368,15.65667,      -1.45166
190.936,15.91333,      -1.48234
193.506,16.17000,      -1.51243
196.075,16.42667,      -1.54663
198.637,16.68333,      -1.58114
201.206,16.94000,      -1.61407
203.771,17.19667,      -1.64940
206.334,17.45333,      -1.68584
208.902,17.71000,      -1.72478
211.469,17.96667,      -1.76323
214.034,18.22333,      -1.80427
216.598,18.48000,      -1.84752
219.169,18.73667,      -1.89208
221.735,18.99333,      -1.94223
224.306,19.25000,      -1.99709
226.868,19.50667,      -2.05364
229.437,19.76333,      -2.13160
232.003,20.02000,      -2.19666
234.571,20.27667,      -2.26732
237.134,20.53333,      -2.35918
239.699,20.79000,      -2.44754
242.263,21.04667,      -2.54591
244.828,21.30333,      -2.64757
247.4,21.56000,      -2.75673
249.967,21.81667,      -2.87459
252.536,22.07333,      -2.99396
255.092,22.33000,      -3.12221
257.667,22.58667,      -3.24738
260.229,22.84333,      -3.38373
262.794,23.10000,      -3.51469
265.36,23.35667,      -3.64864
267.926,23.61333,      -3.78030
270.491,23.87000,      -3.91664
273.049,24.12667,      -4.04869
275.617,24.38333,      -4.17974
278.175,24.64000,      -4.31348
280.743,24.89667,      -4.44452
283.31,25.15333,      -4.57475
285.878,25.41000,      -4.70608
288.444,25.66667,      -4.84091
291.016,25.92333,      -4.97453
293.584,26.18000,      -5.11015
296.141,26.43667,      -5.25196
298.705,26.69333,      -5.39857
301.272,26.95000,      -5.55027
303.84,27.20667,      -5.71267
306.401,27.46333,      -5.89207
308.973,27.72000,      -6.08408
311.542,27.97667,      -6.29858
314.111,28.23333,      -6.53678
316.678,28.49000,      -6.81058
319.253,28.74667,      -7.11288
321.814,29.00333,      -7.44449
324.382,29.26000,      -7.79099
326.939,29.51667,      -8.12869
329.505,29.77333,      -8.43009
332.064,30.03000,      -8.67868
334.62,30.28667,      -8.87088
337.179,30.54333,      -9.01228
339.74,30.80000,      -9.12147
342.312,31.05667,      -9.20816
344.88,31.31333,      -9.27675
347.45,31.57000,      -9.35743
350.012,31.82667,      -9.41202
352.581,32.08333,      -9.47680
355.141,32.34000,      -9.53638
357.713,32.59667,      -9.59326
360.285,32.85333,      -9.65073
362.847,33.11000,      -9.70440
365.407,33.36667,      -9.76047
367.972,33.62333,      -9.81083
370.539,33.88000,      -9.86309
373.105,34.13667,      -9.91355
375.669,34.39333,      -9.96290
378.233,34.65000,     -10.01205
380.797,34.90667,     -10.06090
383.365,35.16333,     -10.10884
385.928,35.42000,     -10.15647
388.484,35.67667,     -10.20851
391.053,35.93333,     -10.25043
393.617,36.19000,     -10.29705
396.185,36.44667,     -10.34176
398.752,36.70333,     -10.38678
401.313,36.96000,     -10.43238
403.879,37.21667,     -10.47668
406.445,37.47333,     -10.51918
409.01,37.73000,     -10.56338
411.575,37.98667,     -10.60697
414.144,38.24333,     -10.64606
416.707,38.50000,     -10.68714
419.276,38.75667,     -10.72753
421.845,39.01333,     -10.76770
424.405,39.27000,     -10.80599
426.964,39.52667,     -10.84526
429.528,39.78333,     -10.88363
432.091,40.04000,     -10.91960
434.659,40.29667,     -10.95516
437.227,40.55333,     -10.99112
439.791,40.81000,     -11.02469
442.351,41.06667,     -11.05944
444.919,41.32333,     -11.09100
447.481,41.58000,     -11.12424
450.05,41.83667,     -11.15579
452.613,42.09333,     -11.18414
455.175,42.35000,     -11.21258
457.739,42.60667,     -11.24061
460.309,42.86333,     -11.26475
462.875,43.12000,     -11.29178
465.439,43.37667,     -11.31671
467.998,43.63333,     -11.34184
470.564,43.89000,     -11.36306
473.126,44.14667,     -11.38578
475.69,44.40333,     -11.40539
478.254,44.66000,     -11.42721
480.82,44.91667,     -11.44692
483.382,45.17333,     -11.46583
485.947,45.43000,     -11.48543
488.513,45.68667,     -11.50133
491.074,45.94333,     -11.52144
493.646,46.20000,     -11.53762
496.204,46.45667,     -11.55582
498.772,46.71333,     -11.56911
501.331,46.97000,     -11.58230
503.892,47.22667,     -11.59839
506.459,47.48333,     -11.61117
509.032,47.74000,     -11.62335
511.593,47.99667,     -11.63703
514.148,48.25333,     -11.65021
516.72,48.51000,     -11.66148
519.284,48.76667,     -11.67326
521.842,49.02333,     -11.68653
524.409,49.28000,     -11.69619
526.975,49.53667,     -11.70646
529.54,49.79333,     -11.71702
532.103,50.05000,     -11.72808
534.673,50.30667,     -11.73794
537.233,50.56333,     -11.74880
539.794,50.82000,     -11.75885
542.355,51.07667,     -11.76570
544.926,51.33333,     -11.77664
547.486,51.59000,     -11.78349
550.052,51.84667,     -11.79273
552.618,52.10333,     -11.80166
555.186,52.36000,     -11.81090
557.756,52.61667,     -11.81822
560.324,52.87333,     -11.82575
562.885,53.13000,     -11.83558
565.453,53.38667,     -11.84270
568.017,53.64333,     -11.84992
570.576,53.90000,     -11.85993
573.147,54.15667,     -11.86873
575.716,54.41333,     -11.87344
578.278,54.67000,     -11.88364
580.852,54.92667,     -11.88903
583.414,55.18333,     -11.89783
585.974,55.44000,     -11.90422
588.548,55.69667,     -11.91320
591.116,55.95333,     -11.91798
593.683,56.21000,     -11.92365
596.247,56.46667,     -11.93193
598.815,56.72333,     -11.93889
601.378,56.98000,     -11.94495
603.946,57.23667,     -11.95031
606.508,57.49333,     -11.95646
609.077,57.75000,     -11.96261
611.638,58.00667,     -11.96836
614.211,58.26333,     -11.97339
616.764,58.52000,     -11.98214
619.339,58.77667,     -11.98566
621.906,59.03333,     -11.99139
624.471,59.29000,     -11.99621
627.033,59.54667,     -12.00283
629.608,59.80333,     -12.01025
632.17,60.06000,     -12.01466
634.736,60.31667,     -12.01977
637.3,60.57333,     -12.02518
639.867,60.83000,     -12.03008
642.432,61.08667,     -12.03778
644.994,61.34333,     -12.04248
647.559,61.60000,     -12.04707
650.127,61.85667,     -12.05236
652.694,62.11333,     -12.05694
655.257,62.37000,     -12.06483
657.819,62.62667,     -12.06921
660.389,62.88333,     -12.07299
662.958,63.14000,     -12.08076
665.524,63.39667,     -12.08334
668.085,63.65333,     -12.08881
670.649,63.91000,     -12.09438
673.218,64.16667,     -12.09874
675.784,64.42333,     -12.10400
678.353,64.68000,     -12.10956
680.916,64.93667,     -12.11452
683.489,65.19333,     -12.12027
686.05,65.45000,     -12.12384
688.619,65.70667,     -12.12868
691.18,65.96333,     -12.13514
693.75,66.22000,     -12.13858
696.317,66.47667,     -12.14403
698.881,66.73333,     -12.14968
701.448,66.99000,     -12.15492
704.017,67.24667,     -12.15926
706.582,67.50333,     -12.16441
709.156,67.76000,     -12.16984
711.722,68.01667,     -12.17389
714.293,68.27333,     -12.17783
716.853,68.53000,     -12.18277
719.422,68.78667,     -12.18851
721.986,69.04333,     -12.19425
724.554,69.30000,     -12.19848
727.129,69.55667,     -12.20222
729.681,69.81333,     -12.20716
732.247,70.07000,     -12.21419
734.805,70.32667,     -12.21812
737.375,70.58333,     -12.22244
739.946,70.84000,     -12.22756
742.512,71.09667,     -12.23288
745.082,71.35333,     -12.23700
747.645,71.61000,     -12.24332
750.21,71.86667,     -12.24743
752.776,72.12333,     -12.25253
755.341,72.38000,     -12.25594
757.906,72.63667,     -12.25984
760.469,72.89333,     -12.26403
763.027,73.15000,     -12.27153
765.597,73.40667,     -12.27501
768.164,73.66333,     -12.27759
770.727,73.92000,     -12.28277
773.297,74.17667,     -12.28724
775.862,74.43333,     -12.29231
778.434,74.69000,     -12.29596
780.999,74.94667,     -12.30062
783.562,75.20333,     -12.30437
786.131,75.46000,     -12.30791
788.701,75.71667,     -12.31254
791.27,75.97333,     -12.31627
793.838,76.23000,     -12.32129
796.411,76.48667,     -12.32480
798.958,76.74333,     -12.32952
799.378,76.78500,     -12.33037