Folder: biomass.carbon/data-raw/TGA (part 13)

File: Q_TGA.csv
#EXPORTTYPE:                 ,DATA SINGLE
#FILE:                       ,Q.ngb-st9
#FORMAT:                     ,NETZSCH5
#FTYPE:                      ,ANSI
#IDENTITY:                   ,Saras
#DECIMAL:                    ,POINT
#SEPARATOR:                  ,COMMA
#MTYPE:                      ,TG
#INSTRUMENT:                 ,NETZSCH TG 209F1 Libra
#PROJECT:                    ,IL
#DATE/TIME:                  ,21/03/2017 4:47:06 PM (UTC+11)
#CORR. FILE:                 ,
#TEMPCAL:                    ,TCALZERO.TCX
#LABORATORY:                 ,Capture Lab
#OPERATOR:                   ,NJN
#REMARK:                     ,Training run
#SAMPLE:                     ,Q
#SAMPLE MASS /mg:            ,11.3483
#MATERIAL:                   ,zeolite
#TYPE OF CRUCIBLE:           ,Al2O3
#SAMPLE CRUCIBLE MASS /mg:   ,312.0190
#REFERENCE CRUCIBLE MASS /mg:,
#M.RANGE /mg:                ,2000
#CORR. CODE:                 ,090
#RANGE:                      ,32°C/10.0(K/min)/800°C
#SEGMENT:                    ,S1/1
#SEG. 1:                     ,32°C/10.0(K/min)/800°C

##Temp./°C,Time/min,Mass loss/mg
 31.57100, 0.00000,-2.051744e-003
 32.70700, 0.25667,-2.296082e-003
 34.96800, 0.51333,-4.890884e-003
 37.91200, 0.77000,-8.725505e-003
 41.13500, 1.02667,-1.451639e-002
 44.31000, 1.28333,-2.626631e-002
 47.24800, 1.54000,-3.965516e-002
 49.94500, 1.79667,-5.233354e-002
 52.48400, 2.05333,-6.747047e-002
 54.94600, 2.31000,-8.414719e-002
 57.41600, 2.56667,      -0.10226
 59.92600, 2.82333,      -0.11955
 62.47500, 3.08000,      -0.13891
 65.05500, 3.33667,      -0.15913
 67.64700, 3.59333,      -0.17905
 70.23800, 3.85000,      -0.19882
 72.82400, 4.10667,      -0.21994
 75.39700, 4.36333,      -0.23943
 77.96400, 4.62000,      -0.25811
 80.52600, 4.87667,      -0.27611
 83.09000, 5.13333,      -0.29331
 85.66300, 5.39000,      -0.31112
 88.23400, 5.64667,      -0.32539
 90.81000, 5.90333,      -0.33926
 93.38400, 6.16000,      -0.35234
 95.95100, 6.41667,      -0.36518
 98.52500, 6.67333,      -0.37604
101.091, 6.93000,      -0.38654
103.659, 7.18667,      -0.39410
106.22, 7.44333,      -0.40331
108.786, 7.70000,      -0.40980
111.348, 7.95667,      -0.41626
113.91, 8.21333,      -0.42469
116.476, 8.47000,      -0.43041
119.047, 8.72667,      -0.43579
121.616, 8.98333,      -0.44105
124.179, 9.24000,      -0.44747
126.752, 9.49667,      -0.45219
129.316, 9.75333,      -0.45727
131.879,10.01000,      -0.46233
134.446,10.26667,      -0.46769
137.016,10.52333,      -0.47294
139.592,10.78000,      -0.47805
142.16,11.03667,      -0.48396
144.726,11.29333,      -0.48814
147.288,11.55000,      -0.49452
149.855,11.80667,      -0.50069
152.422,12.06333,      -0.50605
154.99,12.32000,      -0.51520
157.557,12.57667,      -0.51976
160.124,12.83333,      -0.52889
162.69,13.09000,      -0.53743
165.254,13.34667,      -0.54516
167.818,13.60333,      -0.55580
170.383,13.86000,      -0.56713
172.956,14.11667,      -0.57917
175.52,14.37333,      -0.59070
178.088,14.63000,      -0.60524
180.654,14.88667,      -0.62039
183.221,15.14333,      -0.63704
185.788,15.40000,      -0.65490
188.351,15.65667,      -0.67566
190.918,15.91333,      -0.69914
193.491,16.17000,      -0.72394
196.064,16.42667,      -0.75113
198.632,16.68333,      -0.78145
201.198,16.94000,      -0.81287
203.76,17.19667,      -0.84670
206.319,17.45333,      -0.88094
208.896,17.71000,      -0.91619
211.464,17.96667,      -0.95403
214.024,18.22333,      -0.99127
216.592,18.48000,      -1.02952
219.159,18.73667,      -1.06827
221.72,18.99333,      -1.11113
224.284,19.25000,      -1.15268
226.856,19.50667,      -1.19754
229.422,19.76333,      -1.24490
231.981,20.02000,      -1.29536
234.55,20.27667,      -1.34782
237.119,20.53333,      -1.40518
239.685,20.79000,      -1.46635
242.246,21.04667,      -1.53351
244.819,21.30333,      -1.61027
247.388,21.56000,      -1.67963
249.952,21.81667,      -1.76099
252.518,22.07333,      -1.84266
255.084,22.33000,      -1.93582
257.652,22.58667,      -2.02858
260.217,22.84333,      -2.12533
262.785,23.10000,      -2.22329
265.348,23.35667,      -2.32234
267.916,23.61333,      -2.42220
270.472,23.87000,      -2.52025
273.037,24.12667,      -2.61699
275.603,24.38333,      -2.71304
278.17,24.64000,      -2.80818
280.762,24.89667,      -2.90471
283.297,25.15333,      -3.00325
285.858,25.41000,      -3.10478
288.426,25.66667,      -3.20791
290.996,25.92333,      -3.31233
293.565,26.18000,      -3.42085
296.133,26.43667,      -3.53156
298.694,26.69333,      -3.64457
301.258,26.95000,      -3.76057
303.827,27.20667,      -3.88137
306.397,27.46333,      -4.00357
308.966,27.72000,      -4.12788
311.533,27.97667,      -4.25398
314.094,28.23333,      -4.38658
316.672,28.49000,      -4.52238
319.227,28.74667,      -4.65839
321.789,29.00333,      -4.79389
324.359,29.26000,      -4.92079
326.923,29.51667,      -5.03669
329.483,29.77333,      -5.14549
332.053,30.03000,      -5.24118
334.621,30.28667,      -5.32478
337.185,30.54333,      -5.39897
339.748,30.80000,      -5.48427
342.311,31.05667,      -5.55666
344.875,31.31333,      -5.62715
347.44,31.57000,      -5.69663
350.011,31.82667,      -5.77022
352.575,32.08333,      -5.84360
355.139,32.34000,      -5.91178
357.705,32.59667,      -5.98046
360.265,32.85333,      -6.03813
362.835,33.11000,      -6.10480
365.406,33.36667,      -6.17747
367.968,33.62333,      -6.23204
370.533,33.88000,      -6.29369
373.101,34.13667,      -6.35795
375.663,34.39333,      -6.41700
378.228,34.65000,      -6.47735
380.791,34.90667,      -6.53750
383.352,35.16333,      -6.59534
385.916,35.42000,      -6.65507
388.475,35.67667,      -6.71371
391.04,35.93333,      -6.77133
393.619,36.19000,      -6.82744
396.184,36.44667,      -6.88356
398.743,36.70333,      -6.93838
401.304,36.96000,      -6.99228
403.873,37.21667,      -7.04578
406.444,37.47333,      -7.09458
409.002,37.73000,      -7.14448
411.561,37.98667,      -7.19468
414.128,38.24333,      -7.24236
416.695,38.50000,      -7.28944
419.269,38.75667,      -7.33533
421.829,39.01333,      -7.38211
424.395,39.27000,      -7.42628
426.961,39.52667,      -7.47086
429.526,39.78333,      -7.51493
432.09,40.04000,      -7.55880
434.655,40.29667,      -7.60137
437.217,40.55333,      -7.64253
439.778,40.81000,      -7.68369
442.343,41.06667,      -7.72354
444.908,41.32333,      -7.76180
447.476,41.58000,      -7.79804
450.04,41.83667,      -7.83209
452.604,42.09333,      -7.86634
455.165,42.35000,      -7.89798
457.731,42.60667,      -7.92781
460.299,42.86333,      -7.95745
462.862,43.12000,      -7.98529
465.422,43.37667,      -8.01191
467.99,43.63333,      -8.03504
470.554,43.89000,      -8.05806
473.114,44.14667,      -8.08098
475.677,44.40333,      -8.10250
478.248,44.66000,      -8.12211
480.812,44.91667,      -8.14062
483.377,45.17333,      -8.15773
485.945,45.43000,      -8.17393
488.507,45.68667,      -8.18944
491.074,45.94333,      -8.20393
493.631,46.20000,      -8.21943
496.199,46.45667,      -8.23292
498.768,46.71333,      -8.24641
501.33,46.97000,      -8.25900
503.893,47.22667,      -8.27149
506.455,47.48333,      -8.28457
509.012,47.74000,      -8.29416
511.572,47.99667,      -8.30343
514.148,48.25333,      -8.31440
516.711,48.51000,      -8.32388
519.275,48.76667,      -8.33146
521.835,49.02333,      -8.33903
524.399,49.28000,      -8.34920
526.962,49.53667,      -8.35526
529.525,49.79333,      -8.36172
532.091,50.05000,      -8.36819
534.655,50.30667,      -8.37874
537.221,50.56333,      -8.38410
539.792,50.82000,      -8.39075
542.358,51.07667,      -8.39850
544.923,51.33333,      -8.40485
547.486,51.59000,      -8.40849
550.039,51.84667,      -8.41944
552.615,52.10333,      -8.42126
555.175,52.36000,      -8.43230
557.751,52.61667,      -8.43353
560.301,52.87333,      -8.44207
562.872,53.13000,      -8.44708
565.44,53.38667,      -8.45160
568.002,53.64333,      -8.45732
570.575,53.90000,      -8.46382
573.143,54.15667,      -8.46804
575.7,54.41333,      -8.47544
578.269,54.67000,      -8.48014
580.833,54.92667,      -8.48524
583.409,55.18333,      -8.49032
585.971,55.44000,      -8.49832
588.535,55.69667,      -8.50200
591.095,55.95333,      -8.50689
593.663,56.21000,      -8.51376
596.235,56.46667,      -8.51713
598.795,56.72333,      -8.52699
601.365,56.98000,      -8.52956
603.931,57.23667,      -8.53391
606.492,57.49333,      -8.54277
609.059,57.75000,      -8.54591
611.627,58.00667,      -8.55076
614.196,58.26333,      -8.55849
616.762,58.52000,      -8.56333
619.317,58.77667,      -8.57117
621.887,59.03333,      -8.57729
624.455,59.29000,      -8.58002
627.014,59.54667,      -8.58794
629.585,59.80333,      -8.59255
632.153,60.06000,      -8.60137
634.715,60.31667,      -8.60628
637.282,60.57333,      -8.61008
639.846,60.83000,      -8.61469
642.409,61.08667,      -8.61869
644.976,61.34333,      -8.62538
647.543,61.60000,      -8.62957
650.104,61.85667,      -8.63097
652.662,62.11333,      -8.63846
655.23,62.37000,      -8.63994
657.795,62.62667,      -8.64392
660.359,62.88333,      -8.64650
662.924,63.14000,      -8.64977
665.491,63.39667,      -8.65325
668.057,63.65333,      -8.65602
670.625,63.91000,      -8.66138
673.193,64.16667,      -8.66305
675.755,64.42333,      -8.66611
678.324,64.68000,      -8.67017
680.888,64.93667,      -8.67283
683.455,65.19333,      -8.67618
686.031,65.45000,      -8.67944
688.595,65.70667,      -8.68299
691.162,65.96333,      -8.68524
693.729,66.22000,      -8.68889
696.292,66.47667,      -8.69144
698.849,66.73333,      -8.69499
701.421,66.99000,      -8.69813
703.99,67.24667,      -8.70067
706.554,67.50333,      -8.70342
709.118,67.76000,      -8.70616
711.693,68.01667,      -8.70880
714.253,68.27333,      -8.71144
716.815,68.53000,      -8.71408
719.382,68.78667,      -8.71702
721.951,69.04333,      -8.71936
724.513,69.30000,      -8.72280
727.092,69.55667,      -8.72452
729.66,69.81333,      -8.72676
732.219,70.07000,      -8.72999
734.781,70.32667,      -8.73203
737.346,70.58333,      -8.73445
739.913,70.84000,      -8.73667
742.478,71.09667,      -8.73900
745.046,71.35333,      -8.74081
747.611,71.61000,      -8.74343
750.164,71.86667,      -8.74685
752.727,72.12333,      -8.74805
755.298,72.38000,      -8.75055
757.857,72.63667,      -8.75335
760.424,72.89333,      -8.75555
762.985,73.15000,      -8.75824
765.561,73.40667,      -8.75942
768.122,73.66333,      -8.76261
770.684,73.92000,      -8.76588
773.26,74.17667,      -8.76755
775.82,74.43333,      -8.76892
778.393,74.69000,      -8.77237
780.956,74.94667,      -8.77333
783.529,75.20333,      -8.77598
786.088,75.46000,      -8.77922
788.661,75.71667,      -8.78095
791.234,75.97333,      -8.78138
793.8,76.23000,      -8.78270
796.359,76.48667,      -8.78683
798.926,76.74333,      -8.79033
799.211,76.77167,      -8.79063

File: R_TGA.csv
#EXPORTTYPE:                 ,DATA SINGLE
#FILE:                       ,R.ngb-st9
#FORMAT:                     ,NETZSCH5
#FTYPE:                      ,ANSI
#IDENTITY:                   ,Saras
#DECIMAL:                    ,POINT
#SEPARATOR:                  ,COMMA
#MTYPE:                      ,TG
#INSTRUMENT:                 ,NETZSCH TG 209F1 Libra
#PROJECT:                    ,IL
#DATE/TIME:                  ,22/03/2017 9:43:44 AM (UTC+11)
#CORR. FILE:                 ,
#TEMPCAL:                    ,TCALZERO.TCX
#LABORATORY:                 ,Capture Lab
#OPERATOR:                   ,NJN
#REMARK:                     ,Training run
#SAMPLE:                     ,R
#SAMPLE MASS /mg:            ,18.8541
#MATERIAL:                   ,zeolite
#TYPE OF CRUCIBLE:           ,Al2O3
#SAMPLE CRUCIBLE MASS /mg:   ,311.2628
#REFERENCE CRUCIBLE MASS /mg:,
#M.RANGE /mg:                ,2000
#CORR. CODE:                 ,090
#RANGE:                      ,32°C/10.0(K/min)/800°C
#SEGMENT:                    ,S1/1
#SEG. 1:                     ,32°C/10.0(K/min)/800°C

##Temp./°C,Time/min,Mass loss/mg
 31.52600, 0.00000,-2.518503e-003
 32.66100, 0.25667,-5.573925e-003
 34.92100, 0.51333,-1.397681e-002
 37.86200, 0.77000,-2.890146e-002
 41.09100, 1.02667,-4.925282e-002
 44.26900, 1.28333,-7.298711e-002
 47.22000, 1.54000,      -0.10252
 49.93600, 1.79667,      -0.13583
 52.47400, 2.05333,      -0.17236
 54.94300, 2.31000,      -0.21361
 57.40900, 2.56667,      -0.25792
 59.90900, 2.82333,      -0.30381
 62.46000, 3.08000,      -0.35340
 65.04200, 3.33667,      -0.40423
 67.63800, 3.59333,      -0.45608
 70.23400, 3.85000,      -0.50844
 72.82200, 4.10667,      -0.56155
 75.40400, 4.36333,      -0.61365
 77.97700, 4.62000,      -0.66395
 80.54900, 4.87667,      -0.71243
 83.11800, 5.13333,      -0.75833
 85.68400, 5.39000,      -0.80040
 88.25300, 5.64667,      -0.84048
 90.82500, 5.90333,      -0.87727
 93.39500, 6.16000,      -0.91231
 95.96500, 6.41667,      -0.94287
 98.53700, 6.67333,      -0.97094
101.104, 6.93000,      -0.99714
103.67, 7.18667,      -1.02039
106.237, 7.44333,      -1.04051
108.8, 7.70000,      -1.05980
111.356, 7.95667,      -1.07715
113.919, 8.21333,      -1.09120
116.489, 8.47000,      -1.10552
119.059, 8.72667,      -1.11838
121.618, 8.98333,      -1.13123
124.183, 9.24000,      -1.14287
126.747, 9.49667,      -1.15597
129.31, 9.75333,      -1.16836
131.876,10.01000,      -1.18195
134.444,10.26667,      -1.19599
137.011,10.52333,      -1.21123
139.584,10.78000,      -1.22785
142.15,11.03667,      -1.24545
144.719,11.29333,      -1.26454
147.289,11.55000,      -1.28383
149.85,11.80667,      -1.30598
152.419,12.06333,      -1.32786
154.987,12.32000,      -1.35071
157.562,12.57667,      -1.37466
160.134,12.83333,      -1.39919
162.699,13.09000,      -1.42473
165.257,13.34667,      -1.45406
167.825,13.60333,      -1.48320
170.385,13.86000,      -1.51463
172.95,14.11667,      -1.54826
175.521,14.37333,      -1.58450
178.093,14.63000,      -1.62225
180.652,14.88667,      -1.66128
183.221,15.14333,      -1.70404
185.79,15.40000,      -1.74970
188.36,15.65667,      -1.79687
190.931,15.91333,      -1.84484
193.501,16.17000,      -1.89843
196.063,16.42667,      -1.95293
198.621,16.68333,      -2.01234
201.197,16.94000,      -2.07308
203.765,17.19667,      -2.13391
206.332,17.45333,      -2.20834
208.893,17.71000,      -2.27838
211.458,17.96667,      -2.36522
214.025,18.22333,      -2.43908
216.591,18.48000,      -2.53002
219.16,18.73667,      -2.61998
221.723,18.99333,      -2.71133
224.286,19.25000,      -2.80538
226.852,19.50667,      -2.90014
229.419,19.76333,      -2.99830
231.983,20.02000,      -3.09686
234.549,20.27667,      -3.19402
237.118,20.53333,      -3.29288
239.691,20.79000,      -3.39405
242.25,21.04667,      -3.49641
244.816,21.30333,      -3.59797
247.384,21.56000,      -3.70293
249.957,21.81667,      -3.80870
252.519,22.07333,      -3.91866
255.079,22.33000,      -4.02872
257.652,22.58667,      -4.13968
260.213,22.84333,      -4.25463
262.783,23.10000,      -4.36829
265.347,23.35667,      -4.48374
267.912,23.61333,      -4.60090
270.478,23.87000,      -4.71905
273.036,24.12667,      -4.83779
275.607,24.38333,      -4.95824
278.174,24.64000,      -5.07838
280.74,24.89667,      -5.20192
283.328,25.15333,      -5.32715
285.874,25.41000,      -5.45058
288.431,25.66667,      -5.57741
290.999,25.92333,      -5.70583
293.564,26.18000,      -5.83825
296.126,26.43667,      -5.97046
298.691,26.69333,      -6.10457
301.255,26.95000,      -6.24197
303.83,27.20667,      -6.38457
306.399,27.46333,      -6.52977
308.966,27.72000,      -6.68008
311.529,27.97667,      -6.83758
314.098,28.23333,      -7.00598
316.666,28.49000,      -7.18318
319.241,28.74667,      -7.37028
321.796,29.00333,      -7.57089
324.361,29.26000,      -7.77219
326.923,29.51667,      -7.97629
329.481,29.77333,      -8.17049
332.048,30.03000,      -8.35278
334.609,30.28667,      -8.51608
337.179,30.54333,      -8.65967
339.744,30.80000,      -8.79197
342.309,31.05667,      -8.90956
344.878,31.31333,      -9.01615
347.437,31.57000,      -9.11934
350,31.82667,      -9.21892
352.569,32.08333,      -9.31420
355.143,32.34000,      -9.40528
357.71,32.59667,      -9.50006
360.274,32.85333,      -9.59223
362.84,33.11000,      -9.68360
365.4,33.36667,      -9.77417
367.964,33.62333,      -9.86593
370.53,33.88000,      -9.95699
373.093,34.13667,     -10.05225
375.656,34.39333,     -10.14540
378.229,34.65000,     -10.23945
380.79,34.90667,     -10.33470
383.355,35.16333,     -10.43264
385.921,35.42000,     -10.53047
388.484,35.67667,     -10.63090
391.048,35.93333,     -10.73263
393.609,36.19000,     -10.83475
396.181,36.44667,     -10.93766
398.747,36.70333,     -11.03928
401.303,36.96000,     -11.14119
403.873,37.21667,     -11.24258
406.445,37.47333,     -11.34288
409.003,37.73000,     -11.44028
411.569,37.98667,     -11.53487
414.127,38.24333,     -11.62946
416.697,38.50000,     -11.71574
419.257,38.75667,     -11.80133
421.823,39.01333,     -11.88411
424.39,39.27000,     -11.95699
426.958,39.52667,     -12.02886
429.519,39.78333,     -12.10993
432.084,40.04000,     -12.18040
434.655,40.29667,     -12.25506
437.216,40.55333,     -12.32923
439.777,40.81000,     -12.39269
442.335,41.06667,     -12.45895
444.912,41.32333,     -12.51539
447.486,41.58000,     -12.56944
450.039,41.83667,     -12.62960
452.604,42.09333,     -12.68584
455.171,42.35000,     -12.73598
457.735,42.60667,     -12.78272
460.301,42.86333,     -12.82895
462.863,43.12000,     -12.87758
465.422,43.37667,     -12.92051
467.994,43.63333,     -12.95564
470.553,43.89000,     -12.99926
473.125,44.14667,     -13.03478
475.687,44.40333,     -13.07090
478.252,44.66000,     -13.10281
480.81,44.91667,     -13.13582
483.375,45.17333,     -13.16523
485.944,45.43000,     -13.19533
488.514,45.68667,     -13.22273
491.072,45.94333,     -13.24834
493.637,46.20000,     -13.27273
496.2,46.45667,     -13.29362
498.761,46.71333,     -13.31681
501.328,46.97000,     -13.33740
503.887,47.22667,     -13.35879
506.447,47.48333,     -13.37637
509.016,47.74000,     -13.39175
511.579,47.99667,     -13.40863
514.148,48.25333,     -13.42360
516.715,48.51000,     -13.43798
519.276,48.76667,     -13.45215
521.838,49.02333,     -13.46502
524.407,49.28000,     -13.47859
526.968,49.53667,     -13.49186
529.537,49.79333,     -13.50412
532.104,50.05000,     -13.51598
534.666,50.30667,     -13.52804
537.229,50.56333,     -13.53970
539.808,50.82000,     -13.55134
542.377,51.07667,     -13.56109
544.943,51.33333,     -13.57114
547.506,51.59000,     -13.58268
550.068,51.84667,     -13.59423
552.642,52.10333,     -13.60536
555.213,52.36000,     -13.61559
557.786,52.61667,     -13.62282
560.35,52.87333,     -13.63185
562.915,53.13000,     -13.64507
565.494,53.38667,     -13.65228
568.055,53.64333,     -13.66271
570.621,53.90000,     -13.67182
573.193,54.15667,     -13.68192
575.756,54.41333,     -13.69113
578.313,54.67000,     -13.70114
580.88,54.92667,     -13.71073
583.451,55.18333,     -13.71582
586.007,55.44000,     -13.72651
588.574,55.69667,     -13.73339
591.135,55.95333,     -13.74148
593.697,56.21000,     -13.75305
596.264,56.46667,     -13.75952
598.829,56.72333,     -13.76829
601.391,56.98000,     -13.77415
603.961,57.23667,     -13.78180
606.525,57.49333,     -13.79346
609.098,57.75000,     -13.79830
611.663,58.00667,     -13.80515
614.217,58.26333,     -13.81870
616.786,58.52000,     -13.82822
619.353,58.77667,     -13.83016
621.914,59.03333,     -13.84399
624.479,59.29000,     -13.85201
627.045,59.54667,     -13.85693
629.603,59.80333,     -13.87035
632.165,60.06000,     -13.87976
634.738,60.31667,     -13.89157
637.306,60.57333,     -13.89828
639.869,60.83000,     -13.91208
642.43,61.08667,     -13.92388
644.995,61.34333,     -13.93418
647.562,61.60000,     -13.94637
650.13,61.85667,     -13.95816
652.686,62.11333,     -13.97155
655.256,62.37000,     -13.98283
657.825,62.62667,     -13.99521
660.384,62.88333,     -14.00949
662.953,63.14000,     -14.02107
665.51,63.39667,     -14.03754
668.068,63.65333,     -14.05502
670.642,63.91000,     -14.06328
673.215,64.16667,     -14.07014
675.78,64.42333,     -14.08741
678.349,64.68000,     -14.09986
680.915,64.93667,     -14.10362
683.476,65.19333,     -14.11488
686.043,65.45000,     -14.12604
688.607,65.70667,     -14.13509
691.171,65.96333,     -14.14604
693.743,66.22000,     -14.15038
696.32,66.47667,     -14.15253
698.878,66.73333,     -14.16128
701.443,66.99000,     -14.16802
704.01,67.24667,     -14.17366
706.578,67.50333,     -14.18351
709.14,67.76000,     -14.18835
711.716,68.01667,     -14.19139
714.274,68.27333,     -14.19464
716.838,68.53000,     -14.20308
719.402,68.78667,     -14.20932
721.961,69.04333,     -14.21376
724.525,69.30000,     -14.21919
727.091,69.55667,     -14.22473
729.66,69.81333,     -14.23306
732.229,70.07000,     -14.23519
734.792,70.32667,     -14.23872
737.36,70.58333,     -14.24375
739.931,70.84000,     -14.25037
742.496,71.09667,     -14.25409
745.06,71.35333,     -14.25681
747.617,71.61000,     -14.27053
750.186,71.86667,     -14.27103
752.752,72.12333,     -14.27674
755.329,72.38000,     -14.27844
757.89,72.63667,     -14.28234
760.457,72.89333,     -14.28784
763.017,73.15000,     -14.29333
765.584,73.40667,     -14.29802
768.154,73.66333,     -14.30089
770.714,73.92000,     -14.30847
773.28,74.17667,     -14.31264
775.849,74.43333,     -14.31471
778.415,74.69000,     -14.31947
780.984,74.94667,     -14.32742
783.548,75.20333,     -14.32957
786.114,75.46000,     -14.32971
788.677,75.71667,     -14.33955
791.25,75.97333,     -14.34248
793.813,76.23000,     -14.34880
796.387,76.48667,     -14.35031
798.953,76.74333,     -14.35912
799.391,76.78667,     -14.35987