Folder: biomass.carbon/data-raw/TGA (part 12)

File: N_TGA.csv
#EXPORTTYPE:                 ,DATA SINGLE
#FILE:                       ,N.ngb-st9
#FORMAT:                     ,NETZSCH5
#FTYPE:                      ,ANSI
#IDENTITY:                   ,Saras
#DECIMAL:                    ,POINT
#SEPARATOR:                  ,COMMA
#MTYPE:                      ,TG
#INSTRUMENT:                 ,NETZSCH TG 209F1 Libra
#PROJECT:                    ,IL
#DATE/TIME:                  ,21/03/2017 1:02:09 PM (UTC+11)
#CORR. FILE:                 ,
#TEMPCAL:                    ,TCALZERO.TCX
#LABORATORY:                 ,Capture Lab
#OPERATOR:                   ,NJN
#REMARK:                     ,Training run
#SAMPLE:                     ,N
#SAMPLE MASS /mg:            ,10.6537
#MATERIAL:                   ,zeolite
#TYPE OF CRUCIBLE:           ,Al2O3
#SAMPLE CRUCIBLE MASS /mg:   ,312.0539
#REFERENCE CRUCIBLE MASS /mg:,
#M.RANGE /mg:                ,2000
#CORR. CODE:                 ,090
#RANGE:                      ,32°C/10.0(K/min)/800°C
#SEGMENT:                    ,S1/1
#SEG. 1:                     ,32°C/10.0(K/min)/800°C

##Temp./°C,Time/min,Mass loss/mg
 31.49000, 0.00000,-2.293855e-003
 32.65000, 0.25667,-3.577050e-003
 34.96500, 0.51333,-7.723285e-003
 37.94200, 0.77000,-1.327245e-002
 41.18100, 1.02667,-2.437583e-002
 44.34400, 1.28333,-3.730887e-002
 47.27100, 1.54000,-5.260713e-002
 49.95700, 1.79667,-7.019382e-002
 52.48700, 2.05333,-8.834291e-002
 54.94900, 2.31000,      -0.10813
 57.42300, 2.56667,      -0.12846
 59.93900, 2.82333,      -0.15068
 62.49400, 3.08000,      -0.17232
 65.07900, 3.33667,      -0.19435
 67.67300, 3.59333,      -0.21595
 70.26200, 3.85000,      -0.23700
 72.84200, 4.10667,      -0.25790
 75.41400, 4.36333,      -0.27682
 77.98100, 4.62000,      -0.29473
 80.54700, 4.87667,      -0.31083
 83.11300, 5.13333,      -0.32472
 85.68500, 5.39000,      -0.33733
 88.24500, 5.64667,      -0.34825
 90.82400, 5.90333,      -0.35697
 93.39300, 6.16000,      -0.36542
 95.96700, 6.41667,      -0.37219
 98.54000, 6.67333,      -0.37775
101.106, 6.93000,      -0.38303
103.669, 7.18667,      -0.38668
106.228, 7.44333,      -0.39041
108.799, 7.70000,      -0.39322
111.363, 7.95667,      -0.39635
113.929, 8.21333,      -0.39830
116.488, 8.47000,      -0.40069
119.054, 8.72667,      -0.40248
121.619, 8.98333,      -0.40394
124.188, 9.24000,      -0.40597
126.757, 9.49667,      -0.40749
129.32, 9.75333,      -0.40907
131.891,10.01000,      -0.41094
134.458,10.26667,      -0.41319
137.026,10.52333,      -0.41543
139.597,10.78000,      -0.41765
142.159,11.03667,      -0.42025
144.73,11.29333,      -0.42375
147.297,11.55000,      -0.42713
149.869,11.80667,      -0.43080
152.438,12.06333,      -0.43596
155.003,12.32000,      -0.44020
157.571,12.57667,      -0.44575
160.133,12.83333,      -0.45109
162.7,13.09000,      -0.45773
165.266,13.34667,      -0.46426
167.832,13.60333,      -0.47390
170.405,13.86000,      -0.48204
172.969,14.11667,      -0.49276
175.533,14.37333,      -0.50390
178.1,14.63000,      -0.51604
180.665,14.88667,      -0.52928
183.234,15.14333,      -0.54434
185.801,15.40000,      -0.55929
188.368,15.65667,      -0.57616
190.934,15.91333,      -0.59314
193.499,16.17000,      -0.61043
196.068,16.42667,      -0.62773
198.636,16.68333,      -0.64624
201.203,16.94000,      -0.66567
203.772,17.19667,      -0.68591
206.339,17.45333,      -0.70714
208.904,17.71000,      -0.72928
211.471,17.96667,      -0.75343
214.034,18.22333,      -0.77917
216.607,18.48000,      -0.80702
219.17,18.73667,      -0.83727
221.737,18.99333,      -0.86943
224.301,19.25000,      -0.90378
226.869,19.50667,      -0.94124
229.434,19.76333,      -0.98070
231.999,20.02000,      -1.02276
234.563,20.27667,      -1.06852
237.13,20.53333,      -1.11628
239.697,20.79000,      -1.16684
242.265,21.04667,      -1.22161
244.831,21.30333,      -1.27947
247.399,21.56000,      -1.34153
249.963,21.81667,      -1.41689
252.526,22.07333,      -1.48725
255.097,22.33000,      -1.56782
257.661,22.58667,      -1.65758
260.226,22.84333,      -1.74953
262.795,23.10000,      -1.84859
265.362,23.35667,      -1.95514
267.928,23.61333,      -2.07129
270.495,23.87000,      -2.19845
273.059,24.12667,      -2.33579
275.621,24.38333,      -2.47954
278.19,24.64000,      -2.63318
280.754,24.89667,      -2.79762
283.326,25.15333,      -2.96615
285.901,25.41000,      -3.14198
288.45,25.66667,      -3.32171
291.009,25.92333,      -3.51033
293.577,26.18000,      -3.70275
296.148,26.43667,      -3.90246
298.72,26.69333,      -4.11206
301.286,26.95000,      -4.33407
303.847,27.20667,      -4.56537
306.416,27.46333,      -4.80697
308.975,27.72000,      -5.06088
311.54,27.97667,      -5.31358
314.114,28.23333,      -5.55718
316.681,28.49000,      -5.78078
319.246,28.74667,      -5.97568
321.814,29.00333,      -6.13269
324.361,29.26000,      -6.25409
326.919,29.51667,      -6.34969
329.493,29.77333,      -6.41688
332.065,30.03000,      -6.47028
334.631,30.28667,      -6.52168
337.197,30.54333,      -6.56707
339.757,30.80000,      -6.60787
342.323,31.05667,      -6.64536
344.891,31.31333,      -6.68045
347.46,31.57000,      -6.71333
350.027,31.82667,      -6.74462
352.588,32.08333,      -6.77430
355.151,32.34000,      -6.80348
357.718,32.59667,      -6.82986
360.282,32.85333,      -6.85633
362.848,33.11000,      -6.88170
365.408,33.36667,      -6.90757
367.977,33.62333,      -6.93203
370.547,33.88000,      -6.95579
373.112,34.13667,      -6.97915
375.672,34.39333,      -7.00130
378.236,34.65000,      -7.02385
380.802,34.90667,      -7.04529
383.362,35.16333,      -7.06694
385.929,35.42000,      -7.08767
388.492,35.67667,      -7.10940
391.058,35.93333,      -7.12983
393.623,36.19000,      -7.15015
396.186,36.44667,      -7.17027
398.753,36.70333,      -7.18918
401.316,36.96000,      -7.20928
403.879,37.21667,      -7.22888
406.446,37.47333,      -7.24748
409.01,37.73000,      -7.26688
411.577,37.98667,      -7.28567
414.14,38.24333,      -7.30386
416.709,38.50000,      -7.32184
419.273,38.75667,      -7.34003
421.839,39.01333,      -7.35811
424.402,39.27000,      -7.37408
426.965,39.52667,      -7.39246
429.532,39.78333,      -7.40973
432.097,40.04000,      -7.42740
434.666,40.29667,      -7.44436
437.231,40.55333,      -7.46093
439.79,40.81000,      -7.47709
442.356,41.06667,      -7.49254
444.916,41.32333,      -7.50740
447.48,41.58000,      -7.52274
450.053,41.83667,      -7.53729
452.617,42.09333,      -7.55103
455.177,42.35000,      -7.56448
457.738,42.60667,      -7.57801
460.304,42.86333,      -7.59145
462.874,43.12000,      -7.60398
465.432,43.37667,      -7.61621
467.995,43.63333,      -7.62754
470.567,43.89000,      -7.63926
473.13,44.14667,      -7.64958
475.69,44.40333,      -7.66010
478.261,44.66000,      -7.67111
480.822,44.91667,      -7.68062
483.388,45.17333,      -7.69112
485.957,45.43000,      -7.69973
488.52,45.68667,      -7.70903
491.083,45.94333,      -7.71803
493.645,46.20000,      -7.72583
496.21,46.45667,      -7.73432
498.777,46.71333,      -7.74271
501.34,46.97000,      -7.75150
503.905,47.22667,      -7.75868
506.471,47.48333,      -7.76657
509.036,47.74000,      -7.77375
511.593,47.99667,      -7.78153
514.155,48.25333,      -7.78750
516.72,48.51000,      -7.79498
519.288,48.76667,      -7.80135
521.855,49.02333,      -7.80752
524.417,49.28000,      -7.81379
526.983,49.53667,      -7.81976
529.549,49.79333,      -7.82582
532.112,50.05000,      -7.83148
534.671,50.30667,      -7.83794
537.237,50.56333,      -7.84359
539.807,50.82000,      -7.84864
542.368,51.07667,      -7.85320
544.938,51.33333,      -7.85864
547.492,51.59000,      -7.86369
550.062,51.84667,      -7.86793
552.626,52.10333,      -7.87306
555.196,52.36000,      -7.87780
557.758,52.61667,      -7.88163
560.317,52.87333,      -7.88656
562.889,53.13000,      -7.89058
565.459,53.38667,      -7.89509
568.022,53.64333,      -7.89962
570.589,53.90000,      -7.90352
573.161,54.15667,      -7.90723
575.724,54.41333,      -7.91124
578.29,54.67000,      -7.91564
580.855,54.92667,      -7.91944
583.417,55.18333,      -7.92323
585.992,55.44000,      -7.92731
588.559,55.69667,      -7.93060
591.123,55.95333,      -7.93418
593.693,56.21000,      -7.93775
596.261,56.46667,      -7.94192
598.829,56.72333,      -7.94529
601.394,56.98000,      -7.94845
603.961,57.23667,      -7.95190
606.529,57.49333,      -7.95536
609.098,57.75000,      -7.95840
611.655,58.00667,      -7.96145
614.226,58.26333,      -7.96519
616.794,58.52000,      -7.96812
619.359,58.77667,      -7.97146
621.92,59.03333,      -7.97429
624.488,59.29000,      -7.97721
627.049,59.54667,      -7.98033
629.615,59.80333,      -7.98325
632.177,60.06000,      -7.98646
634.749,60.31667,      -7.98887
637.313,60.57333,      -7.99177
639.877,60.83000,      -7.99488
642.438,61.08667,      -7.99808
645.005,61.34333,      -8.00137
647.573,61.60000,      -8.00396
650.133,61.85667,      -8.00706
652.699,62.11333,      -8.01004
655.265,62.37000,      -8.01283
657.832,62.62667,      -8.01581
660.396,62.88333,      -8.01809
662.961,63.14000,      -8.02036
665.523,63.39667,      -8.02374
668.083,63.65333,      -8.02641
670.654,63.91000,      -8.02877
673.224,64.16667,      -8.03114
675.787,64.42333,      -8.03370
678.36,64.68000,      -8.03646
680.917,64.93667,      -8.03933
683.487,65.19333,      -8.04128
686.057,65.45000,      -8.04353
688.628,65.70667,      -8.04658
691.192,65.96333,      -8.04853
693.761,66.22000,      -8.05108
696.324,66.47667,      -8.05333
698.892,66.73333,      -8.05527
701.456,66.99000,      -8.05752
704.023,67.24667,      -8.06006
706.588,67.50333,      -8.06341
709.155,67.76000,      -8.06525
711.721,68.01667,      -8.06749
714.287,68.27333,      -8.07023
716.852,68.53000,      -8.07517
719.419,68.78667,      -8.07461
721.984,69.04333,      -8.07815
724.551,69.30000,      -8.07949
727.112,69.55667,      -8.08222
729.683,69.81333,      -8.08366
732.247,70.07000,      -8.08978
734.818,70.32667,      -8.09031
737.383,70.58333,      -8.08854
739.944,70.84000,      -8.09427
742.506,71.09667,      -8.09629
745.076,71.35333,      -8.09700
747.639,71.61000,      -8.10072
750.202,71.86667,      -8.10273
752.771,72.12333,      -8.10334
755.341,72.38000,      -8.10424
757.901,72.63667,      -8.10674
760.466,72.89333,      -8.11123
763.029,73.15000,      -8.11563
765.588,73.40667,      -8.11892
768.152,73.66333,      -8.11930
770.724,73.92000,      -8.12067
773.285,74.17667,      -8.12294
775.856,74.43333,      -8.12421
778.424,74.69000,      -8.12567
780.994,74.94667,      -8.12752
783.562,75.20333,      -8.13007
786.125,75.46000,      -8.13231
788.696,75.71667,      -8.13434
791.26,75.97333,      -8.13467
793.827,76.23000,      -8.13670
796.395,76.48667,      -8.13831
798.967,76.74333,      -8.14081
799.401,76.78667,      -8.14116

File: NN_TGA.csv
#EXPORTTYPE:                 ,DATA SINGLE
#FILE:                       ,NN.ngb-st9
#FORMAT:                     ,NETZSCH5
#FTYPE:                      ,ANSI
#IDENTITY:                   ,Saras
#DECIMAL:                    ,POINT
#SEPARATOR:                  ,COMMA
#MTYPE:                      ,TG
#INSTRUMENT:                 ,NETZSCH TG 209F1 Libra
#PROJECT:                    ,IL
#DATE/TIME:                  ,21/03/2017 2:49:23 PM (UTC+11)
#CORR. FILE:                 ,
#TEMPCAL:                    ,TCALZERO.TCX
#LABORATORY:                 ,Capture Lab
#OPERATOR:                   ,NJN
#REMARK:                     ,Training run
#SAMPLE:                     ,NN
#SAMPLE MASS /mg:            ,17.6340
#MATERIAL:                   ,zeolite
#TYPE OF CRUCIBLE:           ,Al2O3
#SAMPLE CRUCIBLE MASS /mg:   ,311.1824
#REFERENCE CRUCIBLE MASS /mg:,
#M.RANGE /mg:                ,2000
#CORR. CODE:                 ,090
#RANGE:                      ,32°C/10.0(K/min)/800°C
#SEGMENT:                    ,S1/1
#SEG. 1:                     ,32°C/10.0(K/min)/800°C

##Temp./°C,Time/min,Mass loss/mg
 32.37200, 0.00000,-2.510991e-003
 33.35900, 0.25667,-7.005984e-003
 35.32000, 0.51333,-1.520480e-002
 37.95000, 0.77000,-2.854267e-002
 40.98200, 1.02667,-4.621592e-002
 44.09400, 1.28333,-6.661871e-002
 47.07100, 1.54000,-9.250959e-002
 49.84200, 1.79667,      -0.12305
 52.44000, 2.05333,      -0.15729
 54.94200, 2.31000,      -0.19624
 57.42700, 2.56667,      -0.23838
 59.92900, 2.82333,      -0.28371
 62.46700, 3.08000,      -0.33189
 65.03800, 3.33667,      -0.38250
 67.62900, 3.59333,      -0.43626
 70.21800, 3.85000,      -0.49071
 72.80100, 4.10667,      -0.54474
 75.38000, 4.36333,      -0.60035
 77.96300, 4.62000,      -0.65335
 80.53800, 4.87667,      -0.70425
 83.11200, 5.13333,      -0.75224
 85.68500, 5.39000,      -0.79833
 88.25200, 5.64667,      -0.83949
 90.82700, 5.90333,      -0.87716
 93.40300, 6.16000,      -0.91324
 95.97400, 6.41667,      -0.94518
 98.54000, 6.67333,      -0.97314
101.102, 6.93000,      -0.99862
103.667, 7.18667,      -1.02189
106.238, 7.44333,      -1.04192
108.797, 7.70000,      -1.05840
111.362, 7.95667,      -1.07426
113.92, 8.21333,      -1.08808
116.485, 8.47000,      -1.10020
119.046, 8.72667,      -1.11077
121.61, 8.98333,      -1.12123
124.169, 9.24000,      -1.13176
126.739, 9.49667,      -1.14239
129.306, 9.75333,      -1.15258
131.868,10.01000,      -1.16354
134.438,10.26667,      -1.17560
137.004,10.52333,      -1.18763
139.575,10.78000,      -1.20065
142.144,11.03667,      -1.21295
144.711,11.29333,      -1.22845
147.28,11.55000,      -1.24273
149.848,11.80667,      -1.25889
152.422,12.06333,      -1.27377
154.998,12.32000,      -1.28692
157.576,12.57667,      -1.29856
160.14,12.83333,      -1.30889
162.7,13.09000,      -1.31833
165.263,13.34667,      -1.32966
167.822,13.60333,      -1.34099
170.376,13.86000,      -1.35272
172.945,14.11667,      -1.36487
175.511,14.37333,      -1.37821
178.084,14.63000,      -1.39235
180.653,14.88667,      -1.40679
183.217,15.14333,      -1.42184
185.787,15.40000,      -1.43730
188.354,15.65667,      -1.45296
190.92,15.91333,      -1.46964
193.486,16.17000,      -1.48713
196.052,16.42667,      -1.50613
198.62,16.68333,      -1.52674
201.185,16.94000,      -1.54747
203.75,17.19667,      -1.57051
206.322,17.45333,      -1.59595
208.885,17.71000,      -1.62368
211.452,17.96667,      -1.65403
214.018,18.22333,      -1.68848
216.585,18.48000,      -1.72603
219.156,18.73667,      -1.76828
221.721,18.99333,      -1.81523
224.289,19.25000,      -1.86889
226.852,19.50667,      -1.92644
229.422,19.76333,      -1.99000
231.983,20.02000,      -2.06426
234.553,20.27667,      -2.14872
237.118,20.53333,      -2.23118
239.68,20.79000,      -2.32534
242.251,21.04667,      -2.42201
244.813,21.30333,      -2.52397
247.381,21.56000,      -2.63203
249.951,21.81667,      -2.74630
252.517,22.07333,      -2.86686
255.081,22.33000,      -2.99132
257.648,22.58667,      -3.12058
260.21,22.84333,      -3.25393
262.779,23.10000,      -3.38979
265.345,23.35667,      -3.52764
267.914,23.61333,      -3.66840
270.472,23.87000,      -3.81265
273.039,24.12667,      -3.95659
275.606,24.38333,      -4.10064
278.167,24.64000,      -4.24908
280.733,24.89667,      -4.39452
283.333,25.15333,      -4.54265
285.875,25.41000,      -4.68998
288.43,25.66667,      -4.84161
290.994,25.92333,      -4.99203
293.558,26.18000,      -5.14615
296.123,26.43667,      -5.30466
298.69,26.69333,      -5.46647
301.259,26.95000,      -5.63467
303.826,27.20667,      -5.81037
306.394,27.46333,      -5.99807
308.96,27.72000,      -6.19528
311.524,27.97667,      -6.40648
314.097,28.23333,      -6.63228
316.661,28.49000,      -6.87828
319.231,28.74667,      -7.13508
321.801,29.00333,      -7.40329
324.359,29.26000,      -7.67939
326.92,29.51667,      -7.94739
329.486,29.77333,      -8.20649
332.049,30.03000,      -8.45219
334.616,30.28667,      -8.68588
337.178,30.54333,      -8.89948
339.742,30.80000,      -9.09307
342.31,31.05667,      -9.26396
344.873,31.31333,      -9.41525
347.438,31.57000,      -9.54144
350.003,31.82667,      -9.64892
352.571,32.08333,      -9.74080
355.134,32.34000,      -9.81718
357.698,32.59667,      -9.88356
360.267,32.85333,      -9.94203
362.831,33.11000,     -10.00250
365.391,33.36667,     -10.06047
367.963,33.62333,     -10.11623
370.531,33.88000,     -10.17069
373.093,34.13667,     -10.22485
375.664,34.39333,     -10.27730
378.22,34.65000,     -10.33016
380.785,34.90667,     -10.38340
383.351,35.16333,     -10.43654
385.915,35.42000,     -10.48817
388.478,35.67667,     -10.53980
391.043,35.93333,     -10.59313
393.601,36.19000,     -10.64445
396.172,36.44667,     -10.69587
398.735,36.70333,     -10.74788
401.308,36.96000,     -10.79738
403.864,37.21667,     -10.84719
406.435,37.47333,     -10.89708
409,37.73000,     -10.94528
411.569,37.98667,     -10.99337
414.131,38.24333,     -11.04036
416.692,38.50000,     -11.08755
419.26,38.75667,     -11.13343
421.822,39.01333,     -11.17881
424.389,39.27000,     -11.22329
426.953,39.52667,     -11.26916
429.515,39.78333,     -11.31333
432.083,40.04000,     -11.35740
434.645,40.29667,     -11.40247
437.214,40.55333,     -11.44543
439.775,40.81000,     -11.48809
442.34,41.06667,     -11.53065
444.904,41.32333,     -11.57340
447.465,41.58000,     -11.61535
450.031,41.83667,     -11.65629
452.598,42.09333,     -11.69694
455.166,42.35000,     -11.73528
457.728,42.60667,     -11.77282
460.292,42.86333,     -11.80985
462.858,43.12000,     -11.84808
465.42,43.37667,     -11.88421
467.987,43.63333,     -11.92054
470.554,43.89000,     -11.95576
473.117,44.14667,     -11.99098
475.678,44.40333,     -12.02680
478.237,44.66000,     -12.06102
480.806,44.91667,     -12.09312
483.374,45.17333,     -12.12303
485.934,45.43000,     -12.14974
488.499,45.68667,     -12.17373
491.067,45.94333,     -12.19603
493.633,46.20000,     -12.21563
496.196,46.45667,     -12.23422
498.76,46.71333,     -12.25181
501.323,46.97000,     -12.26980
503.888,47.22667,     -12.28608
506.448,47.48333,     -12.30207
509.015,47.74000,     -12.31695
511.583,47.99667,     -12.33173
514.139,48.25333,     -12.34661
516.705,48.51000,     -12.36048
519.273,48.76667,     -12.37455
521.835,49.02333,     -12.38753
524.397,49.28000,     -12.40080
526.964,49.53667,     -12.41396
529.535,49.79333,     -12.42672
532.095,50.05000,     -12.43869
534.66,50.30667,     -12.45064
537.224,50.56333,     -12.46210
539.785,50.82000,     -12.47305
542.354,51.07667,     -12.48520
544.92,51.33333,     -12.49625
547.477,51.59000,     -12.50750
550.038,51.84667,     -12.51833
552.606,52.10333,     -12.52827
555.167,52.36000,     -12.53870
557.737,52.61667,     -12.54873
560.307,52.87333,     -12.55815
562.872,53.13000,     -12.56868
565.44,53.38667,     -12.57900
568.009,53.64333,     -12.58862
570.57,53.90000,     -12.59743
573.135,54.15667,     -12.60724
575.707,54.41333,     -12.61604
578.275,54.67000,     -12.62524
580.828,54.92667,     -12.63514
583.401,55.18333,     -12.64453
585.956,55.44000,     -12.65293
588.528,55.69667,     -12.66170
591.098,55.95333,     -12.67088
593.662,56.21000,     -12.68086
596.225,56.46667,     -12.68973
598.788,56.72333,     -12.69820
601.358,56.98000,     -12.70815
603.93,57.23667,     -12.71741
606.493,57.49333,     -12.72656
609.055,57.75000,     -12.73672
611.616,58.00667,     -12.74576
614.187,58.26333,     -12.75660
616.756,58.52000,     -12.76723
619.318,58.77667,     -12.77607
621.883,59.03333,     -12.78730
624.452,59.29000,     -12.79852
627.015,59.54667,     -12.80924
629.577,59.80333,     -12.82106
632.146,60.06000,     -12.83267
634.706,60.31667,     -12.84488
637.274,60.57333,     -12.85748
639.837,60.83000,     -12.87149
642.4,61.08667,     -12.88389
644.972,61.34333,     -12.89838
647.531,61.60000,     -12.91398
650.104,61.85667,     -12.92846
652.664,62.11333,     -12.94376
655.23,62.37000,     -12.96024
657.797,62.62667,     -12.97732
660.355,62.88333,     -12.99410
662.927,63.14000,     -13.01157
665.494,63.39667,     -13.02935
668.061,63.65333,     -13.04671
670.635,63.91000,     -13.06478
673.195,64.16667,     -13.08105
675.763,64.42333,     -13.09721
678.328,64.68000,     -13.11277
680.894,64.93667,     -13.12583
683.463,65.19333,     -13.13578
686.029,65.45000,     -13.14354
688.597,65.70667,     -13.14959
691.163,65.96333,     -13.15484
693.725,66.22000,     -13.16029
696.296,66.47667,     -13.16554
698.859,66.73333,     -13.17068
701.42,66.99000,     -13.17533
703.987,67.24667,     -13.18227
706.553,67.50333,     -13.18771
709.123,67.76000,     -13.19215
711.685,68.01667,     -13.19690
714.251,68.27333,     -13.20074
716.823,68.53000,     -13.20518
719.379,68.78667,     -13.21043
721.943,69.04333,     -13.21546
724.517,69.30000,     -13.21939
727.079,69.55667,     -13.22383
729.644,69.81333,     -13.22886
732.217,70.07000,     -13.23269
734.781,70.32667,     -13.23702
737.345,70.58333,     -13.24155
739.912,70.84000,     -13.24547
742.474,71.09667,     -13.24950
745.046,71.35333,     -13.25331
747.609,71.61000,     -13.25663
750.171,71.86667,     -13.26144
752.74,72.12333,     -13.26484
755.308,72.38000,     -13.26815
757.873,72.63667,     -13.27195
760.439,72.89333,     -13.27464
762.996,73.15000,     -13.27834
765.564,73.40667,     -13.28212
768.138,73.66333,     -13.28520
770.694,73.92000,     -13.28918
773.264,74.17667,     -13.29335
775.829,74.43333,     -13.29632
778.399,74.69000,     -13.29917
780.964,74.94667,     -13.30163
783.53,75.20333,     -13.30548
786.1,75.46000,     -13.30872
788.669,75.71667,     -13.31185
791.237,75.97333,     -13.31408
793.798,76.23000,     -13.31681
796.373,76.48667,     -13.31991
798.94,76.74333,     -13.32283
799.486,76.79833,     -13.32334