Folder: biomass.carbon/data-raw/TGA (part 16)

File: Z_TGA.csv
#EXPORTTYPE:                 ,DATA SINGLE
#FILE:                       ,Z.ngb-st9
#FORMAT:                     ,NETZSCH5
#FTYPE:                      ,ANSI
#IDENTITY:                   ,Saras
#DECIMAL:                    ,POINT
#SEPARATOR:                  ,COMMA
#MTYPE:                      ,TG
#INSTRUMENT:                 ,NETZSCH TG 209F1 Libra
#PROJECT:                    ,IL
#DATE/TIME:                  ,23/03/2017 12:52:54 PM (UTC+11)
#CORR. FILE:                 ,
#TEMPCAL:                    ,TCALZERO.TCX
#LABORATORY:                 ,Capture Lab
#OPERATOR:                   ,NJN
#REMARK:                     ,Training run
#SAMPLE:                     ,Z
#SAMPLE MASS /mg:            ,15.9042
#MATERIAL:                   ,zeolite
#TYPE OF CRUCIBLE:           ,Al2O3
#SAMPLE CRUCIBLE MASS /mg:   ,311.1594
#REFERENCE CRUCIBLE MASS /mg:,
#M.RANGE /mg:                ,2000
#CORR. CODE:                 ,090
#RANGE:                      ,32°C/10.0(K/min)/800°C
#SEGMENT:                    ,S1/1
#SEG. 1:                     ,32°C/10.0(K/min)/800°C

##Temp./°C,Time/min,Mass loss/mg
 31.42500, 0.00000,-3.791955e-003
 32.59200, 0.25667,-8.035729e-003
 34.89600, 0.51333,-1.669905e-002
 37.87600, 0.77000,-3.357319e-002
 41.12200, 1.02667,-5.362289e-002
 44.30100, 1.28333,-7.849015e-002
 47.24500, 1.54000,      -0.10858
 49.93600, 1.79667,      -0.14302
 52.46400, 2.05333,      -0.18041
 54.92700, 2.31000,      -0.22130
 57.39700, 2.56667,      -0.26462
 59.91800, 2.82333,      -0.31127
 62.46700, 3.08000,      -0.35912
 65.05000, 3.33667,      -0.40763
 67.64700, 3.59333,      -0.45686
 70.23300, 3.85000,      -0.50512
 72.82600, 4.10667,      -0.55198
 75.41100, 4.36333,      -0.59767
 77.98400, 4.62000,      -0.64095
 80.55000, 4.87667,      -0.68032
 83.11800, 5.13333,      -0.71702
 85.68700, 5.39000,      -0.74950
 88.24900, 5.64667,      -0.77947
 90.82100, 5.90333,      -0.80596
 93.39900, 6.16000,      -0.82873
 95.97300, 6.41667,      -0.84829
 98.53900, 6.67333,      -0.86523
101.098, 6.93000,      -0.87912
103.665, 7.18667,      -0.89098
106.229, 7.44333,      -0.89921
108.797, 7.70000,      -0.90590
111.357, 7.95667,      -0.91296
113.913, 8.21333,      -0.91979
116.478, 8.47000,      -0.92370
119.047, 8.72667,      -0.92669
121.61, 8.98333,      -0.92954
124.176, 9.24000,      -0.93177
126.743, 9.49667,      -0.93419
129.307, 9.75333,      -0.93766
131.882,10.01000,      -0.93975
134.449,10.26667,      -0.94170
137.016,10.52333,      -0.94403
139.583,10.78000,      -0.94665
142.148,11.03667,      -0.94935
144.716,11.29333,      -0.95255
147.285,11.55000,      -0.95623
149.853,11.80667,      -0.96100
152.418,12.06333,      -0.96556
154.983,12.32000,      -0.97070
157.553,12.57667,      -0.97685
160.119,12.83333,      -0.98250
162.682,13.09000,      -0.99313
165.254,13.34667,      -0.99997
167.826,13.60333,      -1.00600
170.391,13.86000,      -1.01513
172.951,14.11667,      -1.02636
175.512,14.37333,      -1.03739
178.081,14.63000,      -1.04774
180.647,14.88667,      -1.06079
183.219,15.14333,      -1.07325
185.788,15.40000,      -1.08840
188.358,15.65667,      -1.10437
190.926,15.91333,      -1.12204
193.492,16.17000,      -1.14153
196.056,16.42667,      -1.16093
198.622,16.68333,      -1.18354
201.188,16.94000,      -1.20787
203.752,17.19667,      -1.23201
206.323,17.45333,      -1.25915
208.894,17.71000,      -1.28759
211.461,17.96667,      -1.31813
214.024,18.22333,      -1.34957
216.591,18.48000,      -1.38402
219.155,18.73667,      -1.42097
221.718,18.99333,      -1.46113
224.285,19.25000,      -1.50459
226.859,19.50667,      -1.55425
229.425,19.76333,      -1.60800
231.992,20.02000,      -1.67606
234.552,20.27667,      -1.75942
237.118,20.53333,      -1.84288
239.686,20.79000,      -1.93805
242.257,21.04667,      -2.04821
244.825,21.30333,      -2.17307
247.391,21.56000,      -2.31343
249.954,21.81667,      -2.46799
252.521,22.07333,      -2.63666
255.092,22.33000,      -2.81462
257.656,22.58667,      -3.00198
260.216,22.84333,      -3.19643
262.783,23.10000,      -3.39379
265.353,23.35667,      -3.58874
267.909,23.61333,      -3.78540
270.476,23.87000,      -3.97655
273.042,24.12667,      -4.16379
275.608,24.38333,      -4.34644
278.166,24.64000,      -4.52188
280.746,24.89667,      -4.69322
283.32,25.15333,      -4.85835
285.863,25.41000,      -5.01698
288.43,25.66667,      -5.17761
290.993,25.92333,      -5.33663
293.556,26.18000,      -5.49765
296.126,26.43667,      -5.65956
298.695,26.69333,      -5.83507
301.261,26.95000,      -6.01627
303.832,27.20667,      -6.21147
306.398,27.46333,      -6.42577
308.953,27.72000,      -6.66538
311.526,27.97667,      -6.92748
314.099,28.23333,      -7.21988
316.67,28.49000,      -7.52888
319.254,28.74667,      -7.85818
321.805,29.00333,      -8.17649
324.368,29.26000,      -8.47759
326.934,29.51667,      -8.75089
329.488,29.77333,      -8.98349
332.054,30.03000,      -9.17139
334.609,30.28667,      -9.33098
337.18,30.54333,      -9.45627
339.738,30.80000,      -9.55767
342.308,31.05667,      -9.63816
344.877,31.31333,      -9.70765
347.444,31.57000,      -9.77444
350.006,31.82667,      -9.83242
352.573,32.08333,      -9.88840
355.136,32.34000,      -9.94198
357.703,32.59667,      -9.99166
360.272,32.85333,     -10.03733
362.837,33.11000,     -10.08300
365.404,33.36667,     -10.12397
367.968,33.62333,     -10.16373
370.535,33.88000,     -10.20349
373.098,34.13667,     -10.23945
375.662,34.39333,     -10.27480
378.226,34.65000,     -10.30855
380.789,34.90667,     -10.34040
383.354,35.16333,     -10.37284
385.921,35.42000,     -10.40347
388.48,35.67667,     -10.43791
391.047,35.93333,     -10.46613
393.616,36.19000,     -10.49265
396.18,36.44667,     -10.52617
398.744,36.70333,     -10.55438
401.31,36.96000,     -10.58258
403.872,37.21667,     -10.61158
406.436,37.47333,     -10.64138
408.996,37.73000,     -10.66878
411.572,37.98667,     -10.69177
414.14,38.24333,     -10.71796
416.698,38.50000,     -10.74505
419.264,38.75667,     -10.77133
421.826,39.01333,     -10.79771
424.391,39.27000,     -10.82129
426.959,39.52667,     -10.84406
429.519,39.78333,     -10.86983
432.088,40.04000,     -10.89420
434.65,40.29667,     -10.91726
437.221,40.55333,     -10.93762
439.789,40.81000,     -10.96118
442.349,41.06667,     -10.98364
444.917,41.32333,     -11.00379
447.482,41.58000,     -11.02444
450.042,41.83667,     -11.04479
452.611,42.09333,     -11.06453
455.171,42.35000,     -11.08538
457.734,42.60667,     -11.10242
460.301,42.86333,     -11.12154
462.873,43.12000,     -11.13728
465.427,43.37667,     -11.15761
467.993,43.63333,     -11.17433
470.557,43.89000,     -11.19086
473.128,44.14667,     -11.20617
475.685,44.40333,     -11.22310
478.248,44.66000,     -11.23971
480.816,44.91667,     -11.25382
483.382,45.17333,     -11.26633
485.95,45.43000,     -11.28133
488.511,45.68667,     -11.29534
491.079,45.94333,     -11.30973
493.641,46.20000,     -11.32213
496.2,46.45667,     -11.33583
498.764,46.71333,     -11.34741
501.331,46.97000,     -11.35880
503.899,47.22667,     -11.37208
506.465,47.48333,     -11.38287
509.019,47.74000,     -11.39455
511.587,47.99667,     -11.40513
514.152,48.25333,     -11.41661
516.714,48.51000,     -11.42778
519.276,48.76667,     -11.43846
521.847,49.02333,     -11.44492
524.406,49.28000,     -11.45589
526.976,49.53667,     -11.46546
529.541,49.79333,     -11.47552
532.11,50.05000,     -11.48338
534.67,50.30667,     -11.49284
537.232,50.56333,     -11.50030
539.792,50.82000,     -11.51345
542.365,51.07667,     -11.51679
544.928,51.33333,     -11.52455
547.487,51.59000,     -11.53379
550.053,51.84667,     -11.53993
552.619,52.10333,     -11.54766
555.189,52.36000,     -11.55600
557.753,52.61667,     -11.56133
560.31,52.87333,     -11.57326
562.888,53.13000,     -11.57807
565.457,53.38667,     -11.58250
568.015,53.64333,     -11.59292
570.583,53.90000,     -11.59743
573.149,54.15667,     -11.60283
575.713,54.41333,     -11.61064
578.268,54.67000,     -11.62135
580.839,54.92667,     -11.62964
583.412,55.18333,     -11.62953
585.972,55.44000,     -11.63422
588.546,55.69667,     -11.64130
591.103,55.95333,     -11.64899
593.672,56.21000,     -11.65416
596.235,56.46667,     -11.65903
598.808,56.72333,     -11.66419
601.372,56.98000,     -11.67015
603.941,57.23667,     -11.67731
606.512,57.49333,     -11.68376
609.083,57.75000,     -11.68800
611.654,58.00667,     -11.69205
614.221,58.26333,     -11.69719
616.786,58.52000,     -11.70183
619.35,58.77667,     -11.70736
621.906,59.03333,     -11.71269
624.482,59.29000,     -11.71731
627.045,59.54667,     -11.72253
629.605,59.80333,     -11.72795
632.177,60.06000,     -11.73176
634.747,60.31667,     -11.73657
637.306,60.57333,     -11.74058
639.869,60.83000,     -11.74748
642.437,61.08667,     -11.74978
644.997,61.34333,     -11.75358
647.561,61.60000,     -11.75857
650.128,61.85667,     -11.76256
652.698,62.11333,     -11.76704
655.257,62.37000,     -11.77133
657.822,62.62667,     -11.77521
660.388,62.88333,     -11.77769
662.948,63.14000,     -11.78217
665.519,63.39667,     -11.78554
668.079,63.65333,     -11.79101
670.653,63.91000,     -11.79277
673.211,64.16667,     -11.80065
675.783,64.42333,     -11.80150
678.341,64.68000,     -11.80767
680.913,64.93667,     -11.81112
683.479,65.19333,     -11.81458
686.045,65.45000,     -11.81733
688.613,65.70667,     -11.82018
691.179,65.96333,     -11.82444
693.744,66.22000,     -11.82779
696.311,66.47667,     -11.83033
698.876,66.73333,     -11.83458
701.442,66.99000,     -11.83662
704.01,67.24667,     -11.84066
706.582,67.50333,     -11.84550
709.148,67.76000,     -11.84875
711.715,68.01667,     -11.84979
714.282,68.27333,     -11.85423
716.842,68.53000,     -11.85888
719.414,68.78667,     -11.85961
721.979,69.04333,     -11.86395
724.543,69.30000,     -11.86709
727.105,69.55667,     -11.86983
729.669,69.81333,     -11.87366
732.237,70.07000,     -11.87619
734.809,70.32667,     -11.87791
737.378,70.58333,     -11.88024
739.946,70.84000,     -11.88296
742.508,71.09667,     -11.88809
745.076,71.35333,     -11.89080
747.641,71.61000,     -11.89212
750.205,71.86667,     -11.89603
752.767,72.12333,     -11.89954
755.336,72.38000,     -11.90184
757.899,72.63667,     -11.90434
760.467,72.89333,     -11.90663
763.027,73.15000,     -11.91033
765.591,73.40667,     -11.91271
768.155,73.66333,     -11.91540
770.719,73.92000,     -11.91897
773.289,74.17667,     -11.92054
775.859,74.43333,     -11.92140
778.428,74.69000,     -11.92376
780.992,74.94667,     -11.92762
783.559,75.20333,     -11.93107
786.121,75.46000,     -11.93241
788.698,75.71667,     -11.93454
791.255,75.97333,     -11.93597
793.831,76.23000,     -11.93919
796.402,76.48667,     -11.93951
798.968,76.74333,     -11.94302
799.515,76.79833,     -11.94363