Folder: biomass.carbon/data-raw/TGA (part 5)

File: E_TGA.csv
#EXPORTTYPE:                 ,DATA SINGLE
#FILE:                       ,E.ngb-st9
#FORMAT:                     ,NETZSCH5
#FTYPE:                      ,ANSI
#IDENTITY:                   ,Saras
#DECIMAL:                    ,POINT
#SEPARATOR:                  ,COMMA
#MTYPE:                      ,TG
#INSTRUMENT:                 ,NETZSCH TG 209F1 Libra
#PROJECT:                    ,IL
#DATE/TIME:                  ,13/03/2017 4:03:23 PM (UTC+11)
#CORR. FILE:                 ,
#TEMPCAL:                    ,TCALZERO.TCX
#LABORATORY:                 ,Capture Lab
#OPERATOR:                   ,NJN
#REMARK:                     ,Training run
#SAMPLE:                     ,E
#SAMPLE MASS /mg:            ,15.8650
#MATERIAL:                   ,KHCO3
#TYPE OF CRUCIBLE:           ,Al2O3
#SAMPLE CRUCIBLE MASS /mg:   ,311.1638
#REFERENCE CRUCIBLE MASS /mg:,
#M.RANGE /mg:                ,2000
#CORR. CODE:                 ,090
#RANGE:                      ,32°C/10.0(K/min)/800°C
#SEGMENT:                    ,S1/1
#SEG. 1:                     ,32°C/10.0(K/min)/800°C

##Temp./°C,Time/min,Mass loss/mg
 31.68300, 0.00000,-1.695131e-003
 32.78300, 0.25667,-7.794157e-003
 34.98100, 0.51333,-1.952773e-002
 37.86800, 0.77000,-3.689053e-002
 41.07000, 1.02667,-5.862628e-002
 44.24100, 1.28333,-8.566289e-002
 47.20100, 1.54000,      -0.11863
 49.92100, 1.79667,      -0.15593
 52.46900, 2.05333,      -0.19829
 54.94000, 2.31000,      -0.24444
 57.40800, 2.56667,      -0.29254
 59.91700, 2.82333,      -0.34525
 62.46100, 3.08000,      -0.40061
 65.04900, 3.33667,      -0.45866
 67.64100, 3.59333,      -0.51697
 70.23800, 3.85000,      -0.57603
 72.82400, 4.10667,      -0.63584
 75.40000, 4.36333,      -0.69435
 77.97800, 4.62000,      -0.75037
 80.54900, 4.87667,      -0.80534
 83.11300, 5.13333,      -0.85651
 85.68200, 5.39000,      -0.90503
 88.26500, 5.64667,      -0.95113
 90.83500, 5.90333,      -0.99526
 93.40700, 6.16000,      -1.03353
 95.97500, 6.41667,      -1.07167
 98.54600, 6.67333,      -1.10623
101.108, 6.93000,      -1.13744
103.674, 7.18667,      -1.16620
106.239, 7.44333,      -1.19251
108.802, 7.70000,      -1.21689
111.366, 7.95667,      -1.23816
113.931, 8.21333,      -1.25770
116.495, 8.47000,      -1.27549
119.061, 8.72667,      -1.29188
121.628, 8.98333,      -1.30695
124.192, 9.24000,      -1.32037
126.759, 9.49667,      -1.33258
129.323, 9.75333,      -1.34347
131.89,10.01000,      -1.35594
134.462,10.26667,      -1.36470
137.03,10.52333,      -1.37392
139.593,10.78000,      -1.38464
142.164,11.03667,      -1.39336
144.724,11.29333,      -1.40424
147.296,11.55000,      -1.41143
149.863,11.80667,      -1.42249
152.429,12.06333,      -1.43325
154.995,12.32000,      -1.44500
157.561,12.57667,      -1.45795
160.125,12.83333,      -1.47059
162.691,13.09000,      -1.48413
165.257,13.34667,      -1.49846
167.823,13.60333,      -1.51190
170.384,13.86000,      -1.52972
172.952,14.11667,      -1.54637
175.529,14.37333,      -1.56181
178.095,14.63000,      -1.57824
180.658,14.88667,      -1.59589
183.233,15.14333,      -1.61354
185.798,15.40000,      -1.63109
188.362,15.65667,      -1.64836
190.926,15.91333,      -1.66844
193.491,16.17000,      -1.68823
196.06,16.42667,      -1.70733
198.632,16.68333,      -1.72935
201.2,16.94000,      -1.75128
203.767,17.19667,      -1.77450
206.333,17.45333,      -1.79784
208.898,17.71000,      -1.82398
211.464,17.96667,      -1.85073
214.033,18.22333,      -1.88047
216.601,18.48000,      -1.91182
219.162,18.73667,      -1.94707
221.728,18.99333,      -1.98233
224.3,19.25000,      -2.02048
226.871,19.50667,      -2.06154
229.429,19.76333,      -2.10830
231.991,20.02000,      -2.15576
234.557,20.27667,      -2.20632
237.125,20.53333,      -2.26288
239.69,20.79000,      -2.32015
242.256,21.04667,      -2.39481
244.825,21.30333,      -2.45947
247.389,21.56000,      -2.54373
249.954,21.81667,      -2.62459
252.523,22.07333,      -2.71196
255.089,22.33000,      -2.81052
257.658,22.58667,      -2.91438
260.226,22.84333,      -3.02563
262.786,23.10000,      -3.14979
265.345,23.35667,      -3.28594
267.912,23.61333,      -3.42700
270.481,23.87000,      -3.58025
273.044,24.12667,      -3.74349
275.609,24.38333,      -3.91244
278.173,24.64000,      -4.09168
280.736,24.89667,      -4.27752
283.31,25.15333,      -4.46825
285.876,25.41000,      -4.65768
288.462,25.66667,      -4.84971
291.02,25.92333,      -5.03883
293.571,26.18000,      -5.21915
296.135,26.43667,      -5.39096
298.702,26.69333,      -5.55517
301.269,26.95000,      -5.70987
303.835,27.20667,      -5.85467
306.402,27.46333,      -5.99407
308.971,27.72000,      -6.12788
311.537,27.97667,      -6.26028
314.101,28.23333,      -6.39138
316.67,28.49000,      -6.51868
319.239,28.74667,      -6.63988
321.801,29.00333,      -6.75809
324.358,29.26000,      -6.86259
326.922,29.51667,      -6.96029
329.489,29.77333,      -7.05009
332.061,30.03000,      -7.12758
334.624,30.28667,      -7.19858
337.186,30.54333,      -7.28118
339.752,30.80000,      -7.34467
342.321,31.05667,      -7.41466
344.884,31.31333,      -7.46625
347.457,31.57000,      -7.52193
350.019,31.82667,      -7.57612
352.576,32.08333,      -7.63080
355.141,32.34000,      -7.67988
357.702,32.59667,      -7.72706
360.272,32.85333,      -7.77273
362.839,33.11000,      -7.81960
365.405,33.36667,      -7.86277
367.975,33.62333,      -7.90533
370.536,33.88000,      -7.94829
373.103,34.13667,      -7.98825
375.667,34.39333,      -8.02880
378.232,34.65000,      -8.06825
380.795,34.90667,      -8.10710
383.361,35.16333,      -8.14604
385.919,35.42000,      -8.18538
388.487,35.67667,      -8.22200
391.055,35.93333,      -8.25943
393.615,36.19000,      -8.29575
396.185,36.44667,      -8.33266
398.747,36.70333,      -8.36838
401.306,36.96000,      -8.40548
403.88,37.21667,      -8.44018
406.442,37.47333,      -8.47408
409.007,37.73000,      -8.51018
411.569,37.98667,      -8.54637
414.139,38.24333,      -8.58136
416.706,38.50000,      -8.61514
419.268,38.75667,      -8.64913
421.832,39.01333,      -8.68381
424.402,39.27000,      -8.71688
426.955,39.52667,      -8.75136
429.525,39.78333,      -8.78413
432.09,40.04000,      -8.81710
434.654,40.29667,      -8.84997
437.221,40.55333,      -8.88323
439.788,40.81000,      -8.91378
442.353,41.06667,      -8.94334
444.914,41.32333,      -8.97570
447.475,41.58000,      -9.00504
450.044,41.83667,      -9.03559
452.608,42.09333,      -9.06363
455.167,42.35000,      -9.09348
457.739,42.60667,      -9.12041
460.302,42.86333,      -9.14695
462.867,43.12000,      -9.17248
465.431,43.37667,      -9.19611
467.994,43.63333,      -9.22204
470.557,43.89000,      -9.24726
473.115,44.14667,      -9.26788
475.68,44.40333,      -9.29030
478.25,44.66000,      -9.31061
480.813,44.91667,      -9.33062
483.374,45.17333,      -9.35233
485.941,45.43000,      -9.36983
488.508,45.68667,      -9.38794
491.066,45.94333,      -9.40694
493.636,46.20000,      -9.42443
496.196,46.45667,      -9.44293
498.762,46.71333,      -9.45791
501.326,46.97000,      -9.47260
503.887,47.22667,      -9.48929
506.451,47.48333,      -9.50527
509.017,47.74000,      -9.51955
511.581,47.99667,      -9.53303
514.14,48.25333,      -9.54701
516.706,48.51000,      -9.56058
519.272,48.76667,      -9.57256
521.836,49.02333,      -9.58613
524.401,49.28000,      -9.59869
526.97,49.53667,      -9.60836
529.529,49.79333,      -9.62133
532.094,50.05000,      -9.63388
534.663,50.30667,      -9.64544
537.226,50.56333,      -9.65630
539.785,50.82000,      -9.66685
542.349,51.07667,      -9.67490
544.911,51.33333,      -9.69015
547.479,51.59000,      -9.69729
550.049,51.84667,      -9.70823
552.611,52.10333,      -9.71707
555.175,52.36000,      -9.72840
557.744,52.61667,      -9.73573
560.313,52.87333,      -9.74915
562.885,53.13000,      -9.75758
565.45,53.38667,      -9.76400
568.013,53.64333,      -9.77652
570.581,53.90000,      -9.78462
573.143,54.15667,      -9.79354
575.704,54.41333,      -9.80334
578.278,54.67000,      -9.81124
580.837,54.92667,      -9.81974
583.401,55.18333,      -9.83143
585.977,55.44000,      -9.83851
588.545,55.69667,      -9.84530
591.11,55.95333,      -9.85678
593.681,56.21000,      -9.86395
596.248,56.46667,      -9.87282
598.816,56.72333,      -9.88219
601.386,56.98000,      -9.88975
603.943,57.23667,      -9.90091
606.513,57.49333,      -9.90596
609.079,57.75000,      -9.91461
611.639,58.00667,      -9.92556
614.21,58.26333,      -9.93249
616.78,58.52000,      -9.93872
619.348,58.77667,      -9.94636
621.911,59.03333,      -9.95739
624.473,59.29000,      -9.96481
627.04,59.54667,      -9.97213
629.607,59.80333,      -9.98295
632.178,60.06000,      -9.98616
634.739,60.31667,      -9.99537
637.308,60.57333,     -10.00187
639.873,60.83000,     -10.01318
642.439,61.08667,     -10.01998
645.003,61.34333,     -10.02558
647.567,61.60000,     -10.03227
650.13,61.85667,     -10.04126
652.697,62.11333,     -10.04795
655.258,62.37000,     -10.05513
657.832,62.62667,     -10.06371
660.393,62.88333,     -10.07099
662.951,63.14000,     -10.07817
665.525,63.39667,     -10.08583
668.089,63.65333,     -10.09161
670.656,63.91000,     -10.09847
673.221,64.16667,     -10.10664
675.792,64.42333,     -10.11280
678.353,64.68000,     -10.12086
680.923,64.93667,     -10.12942
683.485,65.19333,     -10.13468
686.057,65.45000,     -10.13943
688.622,65.70667,     -10.14768
691.191,65.96333,     -10.15583
693.766,66.22000,     -10.15938
696.325,66.47667,     -10.16683
698.885,66.73333,     -10.17478
701.458,66.99000,     -10.18081
704.027,67.24667,     -10.18556
706.593,67.50333,     -10.19380
709.152,67.76000,     -10.20005
711.718,68.01667,     -10.20429
714.279,68.27333,     -10.21123
716.852,68.53000,     -10.21687
719.413,68.78667,     -10.22581
721.986,69.04333,     -10.23045
724.552,69.30000,     -10.23529
727.116,69.55667,     -10.24052
729.68,69.81333,     -10.24976
732.245,70.07000,     -10.25519
734.81,70.32667,     -10.25612
737.366,70.58333,     -10.26485
739.938,70.84000,     -10.27496
742.509,71.09667,     -10.27739
745.074,71.35333,     -10.28180
747.644,71.61000,     -10.28432
750.211,71.86667,     -10.28843
752.772,72.12333,     -10.29704
755.334,72.38000,     -10.30084
757.895,72.63667,     -10.30684
760.459,72.89333,     -10.31284
763.02,73.15000,     -10.31483
765.589,73.40667,     -10.32141
768.156,73.66333,     -10.32639
770.72,73.92000,     -10.32937
773.289,74.17667,     -10.33114
775.845,74.43333,     -10.34071
778.417,74.69000,     -10.34237
780.989,74.94667,     -10.34522
783.552,75.20333,     -10.35217
786.121,75.46000,     -10.35521
788.691,75.71667,     -10.35804
791.256,75.97333,     -10.36367
793.827,76.23000,     -10.36709
796.396,76.48667,     -10.37171
798.958,76.74333,     -10.37292
799.498,76.79833,     -10.37284

File: FF_TGA.csv
#EXPORTTYPE:                 ,DATA SINGLE
#FILE:                       ,FF.ngb-st9
#FORMAT:                     ,NETZSCH5
#FTYPE:                      ,ANSI
#IDENTITY:                   ,Saras
#DECIMAL:                    ,POINT
#SEPARATOR:                  ,COMMA
#MTYPE:                      ,TG
#INSTRUMENT:                 ,NETZSCH TG 209F1 Libra
#PROJECT:                    ,IL
#DATE/TIME:                  ,16/03/2017 9:48:43 AM (UTC+11)
#CORR. FILE:                 ,
#TEMPCAL:                    ,TCALZERO.TCX
#LABORATORY:                 ,Capture Lab
#OPERATOR:                   ,NJN
#REMARK:                     ,Training run
#SAMPLE:                     ,FF
#SAMPLE MASS /mg:            ,12.2350
#MATERIAL:                   ,KHCO3
#TYPE OF CRUCIBLE:           ,Al2O3
#SAMPLE CRUCIBLE MASS /mg:   ,311.9641
#REFERENCE CRUCIBLE MASS /mg:,
#M.RANGE /mg:                ,2000
#CORR. CODE:                 ,090
#RANGE:                      ,32°C/10.0(K/min)/800°C
#SEGMENT:                    ,S1/1
#SEG. 1:                     ,32°C/10.0(K/min)/800°C

##Temp./°C,Time/min,Mass loss/mg
 31.90200, 0.00000,-2.037716e-003
 32.97000, 0.25667, 1.433278e-004
 35.09700, 0.51333,-8.838618e-004
 37.91500, 0.77000,-2.751928e-003
 41.07100, 1.02667,-4.945812e-003
 44.22900, 1.28333,-1.080800e-002
 47.18800, 1.54000,-1.935419e-002
 49.91800, 1.79667,-2.895511e-002
 52.47200, 2.05333,-4.251623e-002
 54.94300, 2.31000,-5.613089e-002
 57.41500, 2.56667,-6.993764e-002
 59.91700, 2.82333,-8.661790e-002
 62.46500, 3.08000,      -0.10472
 65.04600, 3.33667,      -0.12374
 67.63900, 3.59333,      -0.14376
 70.23000, 3.85000,      -0.16491
 72.81100, 4.10667,      -0.18692
 75.38300, 4.36333,      -0.20813
 77.95400, 4.62000,      -0.22793
 80.52200, 4.87667,      -0.24774
 83.09200, 5.13333,      -0.26673
 85.65600, 5.39000,      -0.28471
 88.23900, 5.64667,      -0.30013
 90.80900, 5.90333,      -0.31455
 93.37900, 6.16000,      -0.32813
 95.95000, 6.41667,      -0.33927
 98.51900, 6.67333,      -0.34913
101.092, 6.93000,      -0.35805
103.654, 7.18667,      -0.36578
106.221, 7.44333,      -0.37201
108.782, 7.70000,      -0.37769
111.341, 7.95667,      -0.38375
113.908, 8.21333,      -0.38920
116.477, 8.47000,      -0.39292
119.041, 8.72667,      -0.39648
121.604, 8.98333,      -0.40173
124.173, 9.24000,      -0.40637
126.739, 9.49667,      -0.41018
129.307, 9.75333,      -0.41477
131.874,10.01000,      -0.41984
134.438,10.26667,      -0.42569
137.006,10.52333,      -0.43293
139.579,10.78000,      -0.44015
142.15,11.03667,      -0.44815
144.718,11.29333,      -0.45735
147.288,11.55000,      -0.46903
149.851,11.80667,      -0.48069
152.416,12.06333,      -0.49345
154.985,12.32000,      -0.50780
157.548,12.57667,      -0.52365
160.115,12.83333,      -0.54090
162.684,13.09000,      -0.55774
165.252,13.34667,      -0.57466
167.819,13.60333,      -0.59080
170.384,13.86000,      -0.60853
172.951,14.11667,      -0.62457
175.516,14.37333,      -0.64190
178.087,14.63000,      -0.65924
180.654,14.88667,      -0.67639
183.223,15.14333,      -0.69514
185.794,15.40000,      -0.71420
188.357,15.65667,      -0.73336
190.92,15.91333,      -0.75484
193.485,16.17000,      -0.77733
196.052,16.42667,      -0.80023
198.622,16.68333,      -0.82445
201.192,16.94000,      -0.85038
203.759,17.19667,      -0.87781
206.325,17.45333,      -0.90644
208.89,17.71000,      -0.93518
211.457,17.96667,      -0.96543
214.029,18.22333,      -0.99717
216.597,18.48000,      -1.03013
219.162,18.73667,      -1.06537
221.727,18.99333,      -1.10383
224.291,19.25000,      -1.14328
226.857,19.50667,      -1.18704
229.422,19.76333,      -1.23520
231.994,20.02000,      -1.28846
234.558,20.27667,      -1.34632
237.124,20.53333,      -1.40998
239.688,20.79000,      -1.49415
242.259,21.04667,      -1.56461
244.821,21.30333,      -1.65787
247.388,21.56000,      -1.74493
249.953,21.81667,      -1.83979
252.517,22.07333,      -1.93666
255.085,22.33000,      -2.03672
257.646,22.58667,      -2.14047
260.213,22.84333,      -2.24743
262.779,23.10000,      -2.35319
265.343,23.35667,      -2.45954
267.909,23.61333,      -2.56810
270.478,23.87000,      -2.67445
273.042,24.12667,      -2.77919
275.607,24.38333,      -2.88494
278.173,24.64000,      -2.98878
280.741,24.89667,      -3.09232
283.309,25.15333,      -3.19545
285.872,25.41000,      -3.29878
288.463,25.66667,      -3.40461
291,25.92333,      -3.51163
293.558,26.18000,      -3.62155
296.128,26.43667,      -3.73776
298.696,26.69333,      -3.85777
301.265,26.95000,      -3.98647
303.831,27.20667,      -4.12517
306.393,27.46333,      -4.27617
308.961,27.72000,      -4.43968
311.526,27.97667,      -4.61758
314.094,28.23333,      -4.80858
316.667,28.49000,      -5.01198
319.226,28.74667,      -5.21949
321.802,29.00333,      -5.42558
324.36,29.26000,      -5.62399
326.923,29.51667,      -5.80199
329.487,29.77333,      -5.95399
332.05,30.03000,      -6.07699
334.611,30.28667,      -6.17368
337.172,30.54333,      -6.23728
339.742,30.80000,      -6.30027
342.311,31.05667,      -6.35336
344.885,31.31333,      -6.40105
347.443,31.57000,      -6.44384
350.01,31.82667,      -6.48472
352.573,32.08333,      -6.52260
355.135,32.34000,      -6.55778
357.701,32.59667,      -6.59246
360.265,32.85333,      -6.62593
362.833,33.11000,      -6.65820
365.402,33.36667,      -6.68897
367.962,33.62333,      -6.71874
370.524,33.88000,      -6.74759
373.087,34.13667,      -6.77595
375.655,34.39333,      -6.80400
378.221,34.65000,      -6.83015
380.785,34.90667,      -6.85700
383.355,35.16333,      -6.88264
385.925,35.42000,      -6.90767
388.491,35.67667,      -6.93180
391.043,35.93333,      -6.95723
393.608,36.19000,      -6.98055
396.178,36.44667,      -7.00407
398.734,36.70333,      -7.02758
401.297,36.96000,      -7.05078
403.863,37.21667,      -7.07278
406.43,37.47333,      -7.09548
408.997,37.73000,      -7.11778
411.553,37.98667,      -7.13928
414.118,38.24333,      -7.15946
416.685,38.50000,      -7.18105
419.253,38.75667,      -7.20063
421.822,39.01333,      -7.22101
424.387,39.27000,      -7.24029
426.949,39.52667,      -7.26026
429.516,39.78333,      -7.27973
432.083,40.04000,      -7.29870
434.648,40.29667,      -7.31687
437.21,40.55333,      -7.33483
439.778,40.81000,      -7.35269
442.34,41.06667,      -7.37105
444.905,41.32333,      -7.38720
447.465,41.58000,      -7.40415
450.03,41.83667,      -7.42039
452.596,42.09333,      -7.43624
455.156,42.35000,      -7.45278
457.721,42.60667,      -7.46802
460.295,42.86333,      -7.48395
462.859,43.12000,      -7.49828
465.422,43.37667,      -7.51311
467.99,43.63333,      -7.52854
470.56,43.89000,      -7.54055
473.119,44.14667,      -7.55548
475.684,44.40333,      -7.56860
478.249,44.66000,      -7.58151
480.811,44.91667,      -7.59552
483.374,45.17333,      -7.60813
485.94,45.43000,      -7.62063
488.503,45.68667,      -7.63504
491.067,45.94333,      -7.64743
493.633,46.20000,      -7.65703
496.208,46.45667,      -7.66772
498.765,46.71333,      -7.68022
501.327,46.97000,      -7.69320
503.894,47.22667,      -7.70508
506.461,47.48333,      -7.71486
509.033,47.74000,      -7.72614
511.593,47.99667,      -7.73713
514.163,48.25333,      -7.74750
516.72,48.51000,      -7.75798
519.286,48.76667,      -7.76835
521.861,49.02333,      -7.77952
524.427,49.28000,      -7.79049
526.993,49.53667,      -7.80085
529.562,49.79333,      -7.81032
532.126,50.05000,      -7.82087
534.688,50.30667,      -7.83014
537.257,50.56333,      -7.83909
539.818,50.82000,      -7.84924
542.385,51.07667,      -7.85949
544.95,51.33333,      -7.87004
547.516,51.59000,      -7.87738
550.08,51.84667,      -7.88722
552.648,52.10333,      -7.89626
555.215,52.36000,      -7.90439
557.782,52.61667,      -7.91302
560.352,52.87333,      -7.92295
562.914,53.13000,      -7.92947
565.483,53.38667,      -7.93939
568.051,53.64333,      -7.94591
570.612,53.90000,      -7.95582
573.178,54.15667,      -7.96473
575.751,54.41333,      -7.97063
578.316,54.67000,      -7.97863
580.883,54.92667,      -7.98743
583.442,55.18333,      -7.99392
586.007,55.44000,      -8.00261
588.581,55.69667,      -8.00819
591.144,55.95333,      -8.01637
593.71,56.21000,      -8.02295
596.284,56.46667,      -8.03111
598.847,56.72333,      -8.03768
601.408,56.98000,      -8.04455
603.981,57.23667,      -8.05240
606.542,57.49333,      -8.05895
609.107,57.75000,      -8.06590
611.669,58.00667,      -8.07275
614.238,58.26333,      -8.07908
616.807,58.52000,      -8.08582
619.371,58.77667,      -8.09215
621.938,59.03333,      -8.09978
624.506,59.29000,      -8.10510
627.069,59.54667,      -8.11213
629.627,59.80333,      -8.11794
632.191,60.06000,      -8.12496
634.756,60.31667,      -8.13107
637.322,60.57333,      -8.13687
639.891,60.83000,      -8.14077
642.458,61.08667,      -8.14968
645.018,61.34333,      -8.15537
647.585,61.60000,      -8.16086
650.148,61.85667,      -8.16586
652.71,62.11333,      -8.17144
655.276,62.37000,      -8.17773
657.841,62.62667,      -8.18280
660.41,62.88333,      -8.18928
662.971,63.14000,      -8.19506
665.536,63.39667,      -8.20133
668.106,63.65333,      -8.20500
670.661,63.91000,      -8.21078
673.229,64.16667,      -8.21684
675.79,64.42333,      -8.22090
678.357,64.68000,      -8.22656
680.926,64.93667,      -8.23232
683.49,65.19333,      -8.23808
686.05,65.45000,      -8.24264
688.618,65.70667,      -8.24808
691.19,65.96333,      -8.25383
693.755,66.22000,      -8.25938
696.325,66.47667,      -8.26463
698.892,66.73333,      -8.26967
701.455,66.99000,      -8.27712
704.025,67.24667,      -8.28146
706.591,67.50333,      -8.28590
709.162,67.76000,      -8.29094
711.714,68.01667,      -8.29579
714.282,68.27333,      -8.30383
716.849,68.53000,      -8.30787
719.421,68.78667,      -8.31301
721.984,69.04333,      -8.31975
724.548,69.30000,      -8.32289
727.11,69.55667,      -8.33072
729.68,69.81333,      -8.33575
732.25,70.07000,      -8.33998
734.816,70.32667,      -8.34501
737.375,70.58333,      -8.35244
739.938,70.84000,      -8.35767
742.508,71.09667,      -8.36288
745.072,71.35333,      -8.36860
747.636,71.61000,      -8.37442
750.207,71.86667,      -8.38033
752.774,72.12333,      -8.38993
755.343,72.38000,      -8.39444
757.91,72.63667,      -8.39984
760.477,72.89333,      -8.40613
763.033,73.15000,      -8.41403
765.609,73.40667,      -8.41970
768.17,73.66333,      -8.42449
770.736,73.92000,      -8.43077
773.301,74.17667,      -8.43854
775.865,74.43333,      -8.44391
778.431,74.69000,      -8.45016
780.997,74.94667,      -8.45592
783.571,75.20333,      -8.46496
786.136,75.46000,      -8.47050
788.704,75.71667,      -8.47784
791.273,75.97333,      -8.48457
793.837,76.23000,      -8.49439
796.407,76.48667,      -8.50031
798.982,76.74333,      -8.50741
799.532,76.79833,      -8.50972