Folder: biomass.carbon/data-raw/TGA (part 8)

File: J_TGA.csv
#EXPORTTYPE:                 ,DATA SINGLE
#FILE:                       ,J.ngb-st9
#FORMAT:                     ,NETZSCH5
#FTYPE:                      ,ANSI
#IDENTITY:                   ,Saras
#DECIMAL:                    ,POINT
#SEPARATOR:                  ,COMMA
#MTYPE:                      ,TG
#INSTRUMENT:                 ,NETZSCH TG 209F1 Libra
#PROJECT:                    ,IL
#DATE/TIME:                  ,17/03/2017 1:26:13 PM (UTC+11)
#CORR. FILE:                 ,
#TEMPCAL:                    ,TCALZERO.TCX
#LABORATORY:                 ,Capture Lab
#OPERATOR:                   ,NJN
#REMARK:                     ,Training run
#SAMPLE:                     ,J
#SAMPLE MASS /mg:            ,11.0150
#MATERIAL:                   ,KHCO3
#TYPE OF CRUCIBLE:           ,Al2O3
#SAMPLE CRUCIBLE MASS /mg:   ,311.9513
#REFERENCE CRUCIBLE MASS /mg:,
#M.RANGE /mg:                ,2000
#CORR. CODE:                 ,090
#RANGE:                      ,32°C/10.0(K/min)/800°C
#SEGMENT:                    ,S1/1
#SEG. 1:                     ,32°C/10.0(K/min)/800°C

##Temp./°C,Time/min,Mass loss/mg
 31.54900, 0.00000,-1.645848e-003
 32.69000, 0.25667,-3.877074e-003
 34.98700, 0.51333,-6.539496e-003
 37.94000, 0.77000,-1.186023e-002
 41.16800, 1.02667,-1.984389e-002
 44.32000, 1.28333,-3.387688e-002
 47.24200, 1.54000,-4.886914e-002
 49.92700, 1.79667,-6.607033e-002
 52.45400, 2.05333,-8.411131e-002
 54.92400, 2.31000,      -0.10104
 57.40300, 2.56667,      -0.12225
 59.92100, 2.82333,      -0.14388
 62.47900, 3.08000,      -0.16636
 65.06400, 3.33667,      -0.18735
 67.65500, 3.59333,      -0.20895
 70.24200, 3.85000,      -0.23200
 72.82000, 4.10667,      -0.25422
 75.39300, 4.36333,      -0.27374
 77.96200, 4.62000,      -0.29294
 80.53400, 4.87667,      -0.31023
 83.10400, 5.13333,      -0.32624
 85.66600, 5.39000,      -0.34029
 88.23900, 5.64667,      -0.35329
 90.80900, 5.90333,      -0.36495
 93.38200, 6.16000,      -0.37262
 95.95000, 6.41667,      -0.38388
 98.51200, 6.67333,      -0.39012
101.084, 6.93000,      -0.39584
103.652, 7.18667,      -0.40179
106.217, 7.44333,      -0.40671
108.78, 7.70000,      -0.41030
111.345, 7.95667,      -0.41416
113.914, 8.21333,      -0.41660
116.478, 8.47000,      -0.41920
119.04, 8.72667,      -0.42197
121.602, 8.98333,      -0.42463
124.171, 9.24000,      -0.42709
126.739, 9.49667,      -0.42789
129.306, 9.75333,      -0.42888
131.868,10.01000,      -0.43053
134.445,10.26667,      -0.43190
137.011,10.52333,      -0.43343
139.583,10.78000,      -0.43535
142.151,11.03667,      -0.43755
144.721,11.29333,      -0.43995
147.284,11.55000,      -0.44222
149.851,11.80667,      -0.44429
152.42,12.06333,      -0.44705
154.983,12.32000,      -0.45010
157.551,12.57667,      -0.45205
160.117,12.83333,      -0.45659
162.678,13.09000,      -0.46172
165.246,13.34667,      -0.46636
167.811,13.60333,      -0.47050
170.382,13.86000,      -0.47544
172.947,14.11667,      -0.48076
175.515,14.37333,      -0.48650
178.088,14.63000,      -0.49155
180.653,14.88667,      -0.50079
183.222,15.14333,      -0.50844
185.785,15.40000,      -0.51760
188.351,15.65667,      -0.52816
190.919,15.91333,      -0.54144
193.486,16.17000,      -0.55463
196.053,16.42667,      -0.57303
198.621,16.68333,      -0.59155
201.191,16.94000,      -0.61358
203.754,17.19667,      -0.63921
206.321,17.45333,      -0.66594
208.881,17.71000,      -0.69628
211.451,17.96667,      -0.72763
214.022,18.22333,      -0.76098
216.587,18.48000,      -0.79602
219.153,18.73667,      -0.83148
221.72,18.99333,      -0.86843
224.286,19.25000,      -0.90789
226.86,19.50667,      -0.94944
229.423,19.76333,      -0.99630
231.986,20.02000,      -1.04726
234.549,20.27667,      -1.10532
237.115,20.53333,      -1.18008
239.688,20.79000,      -1.26435
242.249,21.04667,      -1.35161
244.815,21.30333,      -1.44827
247.387,21.56000,      -1.55233
249.952,21.81667,      -1.66709
252.516,22.07333,      -1.78856
255.079,22.33000,      -1.91452
257.643,22.58667,      -2.04308
260.209,22.84333,      -2.17363
262.773,23.10000,      -2.30479
265.34,23.35667,      -2.43315
267.908,23.61333,      -2.55980
270.47,23.87000,      -2.68365
273.035,24.12667,      -2.80619
275.602,24.38333,      -2.92494
278.165,24.64000,      -3.03958
280.732,24.89667,      -3.15302
283.295,25.15333,      -3.26425
285.882,25.41000,      -3.37658
288.44,25.66667,      -3.49011
290.997,25.92333,      -3.60843
293.56,26.18000,      -3.73015
296.123,26.43667,      -3.85846
298.69,26.69333,      -3.99587
301.257,26.95000,      -4.14707
303.818,27.20667,      -4.31107
306.387,27.46333,      -4.49057
308.96,27.72000,      -4.68868
311.527,27.97667,      -4.90498
314.09,28.23333,      -5.13368
316.659,28.49000,      -5.37548
319.225,28.74667,      -5.62229
321.799,29.00333,      -5.85299
324.362,29.26000,      -6.06349
326.925,29.51667,      -6.24489
329.485,29.77333,      -6.38749
332.043,30.03000,      -6.49629
334.607,30.28667,      -6.56768
337.173,30.54333,      -6.63288
339.739,30.80000,      -6.68627
342.307,31.05667,      -6.73286
344.871,31.31333,      -6.77545
347.432,31.57000,      -6.81624
350,31.82667,      -6.85182
352.566,32.08333,      -6.88730
355.128,32.34000,      -6.91818
357.695,32.59667,      -6.95066
360.266,32.85333,      -6.97933
362.835,33.11000,      -7.00800
365.397,33.36667,      -7.03747
367.957,33.62333,      -7.06554
370.527,33.88000,      -7.09049
373.095,34.13667,      -7.11645
375.657,34.39333,      -7.14380
378.219,34.65000,      -7.16976
380.777,34.90667,      -7.19410
383.347,35.16333,      -7.21874
385.909,35.42000,      -7.24338
388.478,35.67667,      -7.26780
391.042,35.93333,      -7.29163
393.607,36.19000,      -7.31355
396.17,36.44667,      -7.33667
398.735,36.70333,      -7.35898
401.303,36.96000,      -7.38098
403.871,37.21667,      -7.40298
406.43,37.47333,      -7.42648
408.999,37.73000,      -7.44608
411.56,37.98667,      -7.46887
414.126,38.24333,      -7.49026
416.696,38.50000,      -7.51214
419.257,38.75667,      -7.53323
421.816,39.01333,      -7.55351
424.387,39.27000,      -7.57289
426.948,39.52667,      -7.59376
429.519,39.78333,      -7.61353
432.084,40.04000,      -7.63080
434.647,40.29667,      -7.64886
437.211,40.55333,      -7.66693
439.78,40.81000,      -7.68478
442.337,41.06667,      -7.70605
444.895,41.32333,      -7.72390
447.468,41.58000,      -7.73674
450.035,41.83667,      -7.75289
452.59,42.09333,      -7.77094
455.162,42.35000,      -7.78497
457.726,42.60667,      -7.80042
460.294,42.86333,      -7.81415
462.851,43.12000,      -7.83039
465.419,43.37667,      -7.84441
467.984,43.63333,      -7.85664
470.552,43.89000,      -7.86866
473.12,44.14667,      -7.87978
475.677,44.40333,      -7.89410
478.247,44.66000,      -7.90571
480.8,44.91667,      -7.91873
483.367,45.17333,      -7.92933
485.939,45.43000,      -7.93603
488.5,45.68667,      -7.94674
491.064,45.94333,      -7.95823
493.625,46.20000,      -7.97033
496.187,46.45667,      -7.97863
498.753,46.71333,      -7.98781
501.316,46.97000,      -7.99680
503.879,47.22667,      -8.00449
506.449,47.48333,      -8.01527
509.01,47.74000,      -8.02315
511.58,47.99667,      -8.02963
514.142,48.25333,      -8.03851
516.7,48.51000,      -8.04459
519.259,48.76667,      -8.05446
521.838,49.02333,      -8.06202
524.399,49.28000,      -8.06660
526.968,49.53667,      -8.07046
529.53,49.79333,      -8.07993
532.087,50.05000,      -8.09139
534.656,50.30667,      -8.09774
537.221,50.56333,      -8.10020
539.789,50.82000,      -8.10675
542.347,51.07667,      -8.11470
544.916,51.33333,      -8.11764
547.475,51.59000,      -8.12669
550.041,51.84667,      -8.12943
552.607,52.10333,      -8.13727
555.175,52.36000,      -8.14140
557.742,52.61667,      -8.14633
560.307,52.87333,      -8.15076
562.869,53.13000,      -8.15628
565.443,53.38667,      -8.16140
567.999,53.64333,      -8.16812
570.569,53.90000,      -8.17043
573.132,54.15667,      -8.17594
575.692,54.41333,      -8.18264
578.262,54.67000,      -8.18594
580.82,54.92667,      -8.19015
583.397,55.18333,      -8.19433
585.959,55.44000,      -8.19813
588.515,55.69667,      -8.20311
591.089,55.95333,      -8.20738
593.663,56.21000,      -8.21086
596.233,56.46667,      -8.21523
598.802,56.72333,      -8.21769
601.374,56.98000,      -8.22095
603.933,57.23667,      -8.22631
606.504,57.49333,      -8.23086
609.071,57.75000,      -8.23211
611.633,58.00667,      -8.23696
614.198,58.26333,      -8.24359
616.765,58.52000,      -8.24543
619.327,58.77667,      -8.24787
621.894,59.03333,      -8.25229
624.458,59.29000,      -8.25592
627.028,59.54667,      -8.25823
629.59,59.80333,      -8.26215
632.153,60.06000,      -8.26687
634.721,60.31667,      -8.26888
637.288,60.57333,      -8.27308
639.852,60.83000,      -8.27558
642.419,61.08667,      -8.27958
644.989,61.34333,      -8.28138
647.552,61.60000,      -8.28477
650.116,61.85667,      -8.28726
652.681,62.11333,      -8.29035
655.247,62.37000,      -8.29183
657.81,62.62667,      -8.29441
660.381,62.88333,      -8.29869
662.95,63.14000,      -8.30196
665.508,63.39667,      -8.30644
668.075,63.65333,      -8.30721
670.639,63.91000,      -8.30898
673.204,64.16667,      -8.31224
675.765,64.42333,      -8.31571
678.336,64.68000,      -8.31867
680.899,64.93667,      -8.32103
683.464,65.19333,      -8.32408
686.031,65.45000,      -8.32604
688.602,65.70667,      -8.32779
691.162,65.96333,      -8.33694
693.739,66.22000,      -8.33518
696.301,66.47667,      -8.33684
698.863,66.73333,      -8.34108
701.442,66.99000,      -8.33972
704.001,67.24667,      -8.34327
706.573,67.50333,      -8.34451
709.128,67.76000,      -8.34896
711.694,68.01667,      -8.35280
714.269,68.27333,      -8.35003
716.834,68.53000,      -8.35288
719.392,68.78667,      -8.35842
721.968,69.04333,      -8.36565
724.527,69.30000,      -8.36759
727.094,69.55667,      -8.36793
729.666,69.81333,      -8.36756
732.223,70.07000,      -8.37280
734.8,70.32667,      -8.37062
737.356,70.58333,      -8.37365
739.925,70.84000,      -8.37937
742.488,71.09667,      -8.37769
745.053,71.35333,      -8.38231
747.615,71.61000,      -8.38513
750.183,71.86667,      -8.38934
752.754,72.12333,      -8.39104
755.316,72.38000,      -8.39225
757.881,72.63667,      -8.39285
760.438,72.89333,      -8.39564
763.002,73.15000,      -8.40013
765.576,73.40667,      -8.40292
768.138,73.66333,      -8.40500
770.705,73.92000,      -8.40728
773.276,74.17667,      -8.40704
775.843,74.43333,      -8.41081
778.406,74.69000,      -8.41247
780.975,74.94667,      -8.41352
783.533,75.20333,      -8.41998
786.105,75.46000,      -8.42172
788.673,75.71667,      -8.42575
791.241,75.97333,      -8.42668
793.808,76.23000,      -8.42750
796.379,76.48667,      -8.42772
798.931,76.74333,      -8.43023
799.394,76.79000,      -8.43267

File: JJ_TGA.csv
#EXPORTTYPE:                 ,DATA SINGLE
#FILE:                       ,JJ.ngb-st9
#FORMAT:                     ,NETZSCH5
#FTYPE:                      ,ANSI
#IDENTITY:                   ,Saras
#DECIMAL:                    ,POINT
#SEPARATOR:                  ,COMMA
#MTYPE:                      ,TG
#INSTRUMENT:                 ,NETZSCH TG 209F1 Libra
#PROJECT:                    ,IL
#DATE/TIME:                  ,17/03/2017 3:35:39 PM (UTC+11)
#CORR. FILE:                 ,
#TEMPCAL:                    ,TCALZERO.TCX
#LABORATORY:                 ,Capture Lab
#OPERATOR:                   ,NJN
#REMARK:                     ,Training run
#SAMPLE:                     ,JJ
#SAMPLE MASS /mg:            ,11.2245
#MATERIAL:                   ,KHCO3
#TYPE OF CRUCIBLE:           ,Al2O3
#SAMPLE CRUCIBLE MASS /mg:   ,311.1365
#REFERENCE CRUCIBLE MASS /mg:,
#M.RANGE /mg:                ,2000
#CORR. CODE:                 ,090
#RANGE:                      ,32°C/10.0(K/min)/800°C
#SEGMENT:                    ,S1/1
#SEG. 1:                     ,32°C/10.0(K/min)/800°C

##Temp./°C,Time/min,Mass loss/mg
 31.32200, 0.00000,-2.138718e-003
 32.50100, 0.25667,-4.870668e-003
 34.85100, 0.51333,-1.177744e-002
 37.87900, 0.77000,-2.356824e-002
 41.15800, 1.02667,-4.224849e-002
 44.33800, 1.28333,-6.328251e-002
 47.26400, 1.54000,-8.809639e-002
 49.94300, 1.79667,      -0.11686
 52.46500, 2.05333,      -0.14849
 54.91900, 2.31000,      -0.18172
 57.39200, 2.56667,      -0.21725
 59.90600, 2.82333,      -0.25437
 62.46600, 3.08000,      -0.29376
 65.05600, 3.33667,      -0.33355
 67.64800, 3.59333,      -0.37436
 70.24000, 3.85000,      -0.41251
 72.82000, 4.10667,      -0.45412
 75.40100, 4.36333,      -0.48875
 77.97000, 4.62000,      -0.52605
 80.53500, 4.87667,      -0.56001
 83.10500, 5.13333,      -0.59073
 85.67100, 5.39000,      -0.62061
 88.24500, 5.64667,      -0.64710
 90.81900, 5.90333,      -0.67097
 93.39000, 6.16000,      -0.69353
 95.95600, 6.41667,      -0.71307
 98.52400, 6.67333,      -0.73083
101.093, 6.93000,      -0.74654
103.659, 7.18667,      -0.76139
106.225, 7.44333,      -0.77381
108.787, 7.70000,      -0.78380
111.352, 7.95667,      -0.79496
113.916, 8.21333,      -0.80270
116.476, 8.47000,      -0.80820
119.044, 8.72667,      -0.81269
121.61, 8.98333,      -0.81813
124.176, 9.24000,      -0.82447
126.738, 9.49667,      -0.82867
129.304, 9.75333,      -0.83146
131.874,10.01000,      -0.83514
134.442,10.26667,      -0.83700
137.009,10.52333,      -0.84012
139.583,10.78000,      -0.84235
142.145,11.03667,      -0.84464
144.716,11.29333,      -0.84745
147.285,11.55000,      -0.84963
149.851,11.80667,      -0.85219
152.421,12.06333,      -0.85426
154.986,12.32000,      -0.85710
157.552,12.57667,      -0.86025
160.117,12.83333,      -0.86329
162.681,13.09000,      -0.86643
165.246,13.34667,      -0.87046
167.812,13.60333,      -0.87450
170.378,13.86000,      -0.87883
172.948,14.11667,      -0.88287
175.515,14.37333,      -0.88920
178.081,14.63000,      -0.89504
180.65,14.88667,      -0.89989
183.214,15.14333,      -0.90734
185.782,15.40000,      -0.91700
188.346,15.65667,      -0.92496
190.91,15.91333,      -0.93234
193.484,16.17000,      -0.94373
196.054,16.42667,      -0.95444
198.624,16.68333,      -0.96665
201.187,16.94000,      -0.97917
203.754,17.19667,      -0.99191
206.32,17.45333,      -1.00515
208.889,17.71000,      -1.02059
211.453,17.96667,      -1.03473
214.021,18.22333,      -1.05057
216.586,18.48000,      -1.06743
219.155,18.73667,      -1.08418
221.719,18.99333,      -1.10273
224.284,19.25000,      -1.12198
226.849,19.50667,      -1.14444
229.423,19.76333,      -1.16750
231.984,20.02000,      -1.19396
234.545,20.27667,      -1.22352
237.114,20.53333,      -1.25388
239.682,20.79000,      -1.28895
242.246,21.04667,      -1.32841
244.81,21.30333,      -1.37347
247.382,21.56000,      -1.41944
249.948,21.81667,      -1.47649
252.51,22.07333,      -1.54936
255.074,22.33000,      -1.61202
257.64,22.58667,      -1.68138
260.208,22.84333,      -1.77034
262.779,23.10000,      -1.85799
265.341,23.35667,      -1.95014
267.906,23.61333,      -2.04640
270.47,23.87000,      -2.14535
273.04,24.12667,      -2.25309
275.604,24.38333,      -2.36174
278.172,24.64000,      -2.47438
280.737,24.89667,      -2.58932
283.305,25.15333,      -2.70875
285.895,25.41000,      -2.83228
288.435,25.66667,      -2.95881
290.996,25.92333,      -3.08513
293.559,26.18000,      -3.21425
296.127,26.43667,      -3.34606
298.692,26.69333,      -3.47937
301.262,26.95000,      -3.61237
303.829,27.20667,      -3.74867
306.39,27.46333,      -3.88787
308.961,27.72000,      -4.02918
311.524,27.97667,      -4.17418
314.089,28.23333,      -4.32388
316.66,28.49000,      -4.47868
319.221,28.74667,      -4.63829
321.801,29.00333,      -4.80038
324.356,29.26000,      -4.97119
326.919,29.51667,      -5.14289
329.488,29.77333,      -5.31649
332.053,30.03000,      -5.48968
334.618,30.28667,      -5.66168
337.187,30.54333,      -5.82327
339.749,30.80000,      -5.97407
342.312,31.05667,      -6.11226
344.876,31.31333,      -6.23185
347.441,31.57000,      -6.34004
350.002,31.82667,      -6.43012
352.57,32.08333,      -6.50140
355.137,32.34000,      -6.56718
357.704,32.59667,      -6.62516
360.272,32.85333,      -6.67703
362.832,33.11000,      -6.72421
365.398,33.36667,      -6.76437
367.968,33.62333,      -6.79793
370.528,33.88000,      -6.83390
373.096,34.13667,      -6.86515
375.66,34.39333,      -6.89780
378.22,34.65000,      -6.92815
380.784,34.90667,      -6.95770
383.349,35.16333,      -6.98844
385.912,35.42000,      -7.01807
388.479,35.67667,      -7.04560
391.036,35.93333,      -7.07513
393.604,36.19000,      -7.10445
396.169,36.44667,      -7.13127
398.736,36.70333,      -7.15948
401.303,36.96000,      -7.18558
403.87,37.21667,      -7.21408
406.431,37.47333,      -7.24248
408.999,37.73000,      -7.26748
411.562,37.98667,      -7.29397
414.128,38.24333,      -7.32026
416.695,38.50000,      -7.34674
419.266,38.75667,      -7.37113
421.827,39.01333,      -7.39601
424.39,39.27000,      -7.42189
426.955,39.52667,      -7.44536
429.518,39.78333,      -7.46993
432.086,40.04000,      -7.49230
434.643,40.29667,      -7.51767
437.21,40.55333,      -7.54133
439.787,40.81000,      -7.55778
442.344,41.06667,      -7.58255
444.914,41.32333,      -7.60039
447.469,41.58000,      -7.62485
450.033,41.83667,      -7.64409
452.599,42.09333,      -7.66414
455.163,42.35000,      -7.68298
457.733,42.60667,      -7.70071
460.304,42.86333,      -7.71884
462.867,43.12000,      -7.73368
465.426,43.37667,      -7.75231
467.993,43.63333,      -7.76923
470.561,43.89000,      -7.77946
473.12,44.14667,      -7.79868
475.686,44.40333,      -7.81349
478.252,44.66000,      -7.82681
480.813,44.91667,      -7.84172
483.378,45.17333,      -7.85233
485.932,45.43000,      -7.86744
488.507,45.68667,      -7.87973
491.078,45.94333,      -7.89083
493.634,46.20000,      -7.90483
496.193,46.45667,      -7.91892
498.766,46.71333,      -7.92521
501.324,46.97000,      -7.94090
503.893,47.22667,      -7.94938
506.461,47.48333,      -7.96197
509.021,47.74000,      -7.97275
511.581,47.99667,      -7.98423
514.146,48.25333,      -7.99531
516.713,48.51000,      -8.00358
519.278,48.76667,      -8.01356
521.839,49.02333,      -8.02513
524.407,49.28000,      -8.03319
526.974,49.53667,      -8.04506
529.536,49.79333,      -8.05442
532.097,50.05000,      -8.06368
534.668,50.30667,      -8.07234
537.23,50.56333,      -8.08309
539.791,50.82000,      -8.09395
542.355,51.07667,      -8.10400
544.923,51.33333,      -8.10944
547.478,51.59000,      -8.12009
550.047,51.84667,      -8.12513
552.613,52.10333,      -8.13617
555.179,52.36000,      -8.14690
557.745,52.61667,      -8.15263
560.318,52.87333,      -8.16255
562.884,53.13000,      -8.17048
565.447,53.38667,      -8.17990
568.011,53.64333,      -8.18852
570.584,53.90000,      -8.19352
573.145,54.15667,      -8.20434
575.718,54.41333,      -8.20944
578.271,54.67000,      -8.22315
580.837,54.92667,      -8.22964
583.413,55.18333,      -8.23392
585.972,55.44000,      -8.24062
588.537,55.69667,      -8.25130
591.099,55.95333,      -8.25759
593.666,56.21000,      -8.26176
596.238,56.46667,      -8.26952
598.801,56.72333,      -8.28000
601.359,56.98000,      -8.29266
603.941,57.23667,      -8.29200
606.495,57.49333,      -8.29777
609.065,57.75000,      -8.30381
611.634,58.00667,      -8.30955
614.187,58.26333,      -8.32240
616.758,58.52000,      -8.32533
619.326,58.77667,      -8.33066
621.897,59.03333,      -8.33389
624.451,59.29000,      -8.34522
627.019,59.54667,      -8.35103
629.584,59.80333,      -8.35505
632.15,60.06000,      -8.36057
634.713,60.31667,      -8.36568
637.284,60.57333,      -8.37068
639.852,60.83000,      -8.37669
642.416,61.08667,      -8.38338
644.977,61.34333,      -8.38608
647.544,61.60000,      -8.39617
650.113,61.85667,      -8.39746
652.672,62.11333,      -8.40175
655.241,62.37000,      -8.40743
657.801,62.62667,      -8.41412
660.375,62.88333,      -8.41609
662.936,63.14000,      -8.42077
665.507,63.39667,      -8.42394
668.069,63.65333,      -8.42921
670.633,63.91000,      -8.43368
673.198,64.16667,      -8.43895
675.762,64.42333,      -8.44301
678.331,64.68000,      -8.45097
680.895,64.93667,      -8.45423
683.467,65.19333,      -8.45388
686.028,65.45000,      -8.45944
688.61,65.70667,      -8.46178
691.173,65.96333,      -8.46854
693.733,66.22000,      -8.47669
696.302,66.47667,      -8.47923
698.872,66.73333,      -8.48138
701.439,66.99000,      -8.48412
704.001,67.24667,      -8.48737
706.567,67.50333,      -8.49361
709.129,67.76000,      -8.49646
711.687,68.01667,      -8.50400
714.257,68.27333,      -8.50514
716.823,68.53000,      -8.50848
719.39,68.78667,      -8.51672
721.966,69.04333,      -8.51855
724.526,69.30000,      -8.52070
727.093,69.55667,      -8.52453
729.662,69.81333,      -8.52926
732.223,70.07000,      -8.53139
734.794,70.32667,      -8.53472
737.353,70.58333,      -8.53925
739.926,70.84000,      -8.53977
742.48,71.09667,      -8.54690
745.059,71.35333,      -8.54700
747.615,71.61000,      -8.55393
750.18,71.86667,      -8.55654
752.753,72.12333,      -8.56114
755.317,72.38000,      -8.56205
757.883,72.63667,      -8.56305
760.439,72.89333,      -8.57114
763.008,73.15000,      -8.57213
765.568,73.40667,      -8.57812
768.135,73.66333,      -8.57800
770.712,73.92000,      -8.57757
773.268,74.17667,      -8.58605
775.836,74.43333,      -8.59181
778.404,74.69000,      -8.58967
780.975,74.94667,      -8.59402
783.542,75.20333,      -8.59727
786.099,75.46000,      -8.60092
788.665,75.71667,      -8.60255
791.241,75.97333,      -8.60318
793.806,76.23000,      -8.60630
796.374,76.48667,      -8.61112
798.943,76.74333,      -8.61343
799.488,76.79833,      -8.61344